{
  "resourceType":"Bundle",
  "id":"506ca675-3f15-4a76-ad59-616698e8d56c",
  "type":"message",
  "timestamp":"2024-04-04T09:13:16.875Z",
  "meta":{
    "versionId":"1",
    "profile":[
      "https://fhir.siss.regione.lombardia.it/StructureDefinition/ReteLabBundleRispostaACK"
    ]
  },
  "entry":[
    {
      "fullUrl":"MessageHeader/25e02e2d-9e76-44d3-878f-2188de16bb61",
      "resource":{
        "resourceType":"MessageHeader",
        "id":"25e02e2d-9e76-44d3-878f-2188de16bb61",
        "meta":{
          "profile":[
            "https://fhir.siss.regione.lombardia.it/StructureDefinition/ReteLabMessageHeader"
          ],
          "versionId":"1",
          "lastUpdated":"2024-04-04T09:13:16.874Z"
        },
        "eventCoding":{
          "system":"https://fhir.siss.regione.lombardia.it/ValueSet/CodiceEventoMessageHeader",
          "code":"MDM^T02",
          "display":"MDM^T02^MDM_T02"
        },
        "destination":[
          {
            "name":"3",
            "software":"Postman Galaxy Hospital - Orbit Lab",
            "endpoint":"https://pietrodileo.pythonanywhere.com"
          }
        ],
        "source":{
          "name":"OMR",
          "software":"Reti di Laboratorio",
          "endpoint":"localhost:52773/fhir/retilab/Omr"
        },
        "response":{
          "identifier":"507db12c-c582-42ef-ac5b-6d1e779e6d90",
          "code":"ok"
        },
        "focus":[
          {
            "reference":"Task/e1d4f0f9-286d-4e12-809b-406eb00b6fd7"
          }
        ]
      }
    },
    {
      "fullUrl":"Task/e1d4f0f9-286d-4e12-809b-406eb00b6fd7",
      "resource":{
        "resourceType":"Task",
        "id":"e1d4f0f9-286d-4e12-809b-406eb00b6fd7",
        "meta":{
          "profile":[
            "https://fhir.siss.regione.lombardia.it/StructureDefinition/ReteLabTaskStatoRichiesta"
          ],
          "versionId":"1"
        },
        "focus":{
          "reference":"DiagnosticReport/cdf48597-f0f8-11ee-b9c7-020017048457"
        },
        "status":"accepted",
        "intent":"order"
      }
    },
    {
      "fullUrl":"DiagnosticReport/cdf48597-f0f8-11ee-b9c7-020017048457",
      "resource":{
        "resourceType":"DiagnosticReport",
        "id":"cdf48597-f0f8-11ee-b9c7-020017048457",
        "meta":{
          "versionId":"1",
          "profile":[
            "https://fhir.siss.regione.lombardia.it/StructureDefinition/ReteLabDiagnosticReportRefertato"
          ]
        },
        "status":"final",
        "identifier":[
          {
            "system":"https://fhir.siss.regione.lombardia.it/sid/codiceIdentificativoDocumentoTestuale",
            "value":"123456"
          },
          {
            "system":"https://fhir.siss.regione.lombardia.it/sid/codiceIdentificativoDocumentoStrutturato",
            "value":"1234596"
          }
        ],
        "extension":[
          {
            "url":"https://fhir.siss.regione.lombardia.it/StructureDefinition/ReteLabDiagnosticReportTipologiaDCE",
            "valueCodeableConcept":{
              "coding":[
                {
                  "system":"https://fhir.siss.regione.lombardia.it/ValueSet/TipologiaDCE",
                  "display":"Referto Firmato",
                  "code":"RefertoFirmato"
                }
              ]
            }
          },
          {
            "url":"https://fhir.siss.regione.lombardia.it/StructureDefinition/ReteLabDiagnosticReportRefertatoNaturaDCE",
            "valueCodeableConcept":{
              "coding":[
                {
                  "display":"Standard",
                  "code":"01",
                  "system":"https://fhir.siss.regione.lombardia.it/ValueSet/NaturaDCE"
                }
              ]
            }
          }
        ],
        "code":{
          "coding":[
            {
              "code":"11502-2",
              "display":"Laboratory Report",
              "system":"https://fhir.siss.regione.lombardia.it/ValueSet/CodificaLOINC"
            }
          ]
        },
        "effectiveDateTime":"1971-10-28",
        "issued":"2023-11-02T15:09:00+01:00",
        "subject":{
          "reference":"Patient/esempio-paziente-cittadino"
        },
        "basedOn":[
          {
            "reference":"ServiceRequest/esempio-servicerequest1-completato"
          }
        ],
        "resultsInterpreter":[
          {
            "reference":"PractitionerRole/esempio-practitionerrole-responsabile-1"
          },
          {
            "reference":"PractitionerRole/esempio-practitionerrole-responsabile-2"
          }
        ],
        "specimen":[
          {
            "reference":"Specimen/esempio-specimen-campione-di-sangue"
          }
        ],
        "encounter":{
          "reference":"Encounter/esempio-encounter-completato"
        },
        "presentedForm":[
          {
            "contentType":"application/pdf",
            "data":"",
            "creation":"2023-02-27T11:58:01+01:00"
          }
        ]
      }
    },
    {
      "fullUrl":"Patient/esempio-paziente-cittadino",
      "resource":{
        "resourceType":"Patient",
        "id":"esempio-paziente-cittadino",
        "meta":{
          "versionId":"1",
          "profile":[
            "https://fhir.siss.regione.lombardia.it/StructureDefinition/ReteLabPatientCittadino"
          ]
        },
        "extension":[
          {
            "url":"http://hl7.org/fhir/StructureDefinition/patient-birthPlace",
            "valueAddress":{
              "extension":[
                {
                  "url":"https://fhir.siss.regione.lombardia.it/StructureDefinition/ReteLabAddressCodiceISTAT",
                  "valueString":"999215"
                }
              ],
              "city":"FRANCIA"
            }
          }
        ],
        "identifier":[
          {
            "type":{
              "coding":[
                {
                  "system":"https://fhir.siss.regione.lombardia.it/Valueset/TipologiaIdentificativoPaziente",
                  "code":"NPI",
                  "display":"Tessera TEAM"
                }
              ]
            },
            "system":"https://fhir.siss.regione.lombardia.it/Valueset/TesseraTEAM",
            "value":"p12332876455",
            "period":{
              "end":"2021-05-21T00:00:00+01:00"
            },
            "assigner":{
              "extension":[
                {
                  "url":"https://fhir.siss.regione.lombardia.it/StructureDefinition/ReteLabIdentifierAssignerSiglaNazione",
                  "valueString":"FR"
                }
              ],
              "identifier":{
                "value":"COD"
              },
              "display":"DESC"
            }
          }
        ],
        "name":[
          {
            "family":"Rossi",
            "given":[
              "Francesco"
            ]
          }
        ],
        "gender":"male",
        "birthDate":"2000-07-02",
        "address":[
          {
            "extension":[
              {
                "url":"https://fhir.siss.regione.lombardia.it/StructureDefinition/ReteLabAddressCodiceISTAT",
                "valueString":"015146"
              }
            ],
            "use":"home",
            "text":"V. C/O LOMBARDIA INFORMATICA VIA MINZONI 24",
            "_line":[
              {
                "extension":[
                  {
                    "url":"https://fhir.siss.regione.lombardia.it/StructureDefinition/ReteLabAddressLineVia",
                    "valueString":"V. C/O LOMBARDIA INFORMATICA VIA MINZONI"
                  },
                  {
                    "url":"https://fhir.siss.regione.lombardia.it/StructureDefinition/ReteLabLineNumeroCivico",
                    "valueString":"24"
                  }
                ]
              }
            ],
            "city":"MILANO",
            "state":"MI",
            "postalCode":"20158"
          },
          {
            "extension":[
              {
                "url":"https://fhir.siss.regione.lombardia.it/StructureDefinition/ReteLabAddressCodiceISTAT",
                "valueString":"015146"
              }
            ],
            "use":"temp",
            "text":"V. C/O LOMBARDIA INFORMATICA VIA, MINZONI24",
            "_line":[
              {
                "extension":[
                  {
                    "url":"https://fhir.siss.regione.lombardia.it/StructureDefinition/ReteLabLineNumeroCivico",
                    "valueString":"MINZONI24"
                  },
                  {
                    "url":"https://fhir.siss.regione.lombardia.it/StructureDefinition/ReteLabAddressLineVia",
                    "valueString":"V. C/O LOMBARDIA INFORMATICA VIA"
                  }
                ]
              }
            ],
            "city":"MILANO",
            "state":"MI",
            "postalCode":"20158"
          },
          {
            "extension":[
              {
                "url":"https://fhir.siss.regione.lombardia.it/StructureDefinition/ReteLabAddressCodiceISTAT",
                "valueString":"015146"
              }
            ],
            "use":"home",
            "text":"V. C/O LOMBARDIA INFORMATICA VIA MINZONI 24",
            "_line":[
              {
                "extension":[
                  {
                    "url":"https://fhir.siss.regione.lombardia.it/StructureDefinition/ReteLabAddressLineVia",
                    "valueString":"V. C/O LOMBARDIA INFORMATICA VIA MINZONI 24"
                  }
                ]
              }
            ],
            "city":"MILANO",
            "state":"MI",
            "postalCode":"20158"
          },
          {
            "extension":[
              {
                "url":"https://fhir.siss.regione.lombardia.it/StructureDefinition/ReteLabAddressCodiceISTAT",
                "valueString":"015146"
              }
            ],
            "use":"home",
            "text":"V. C/O LOMBARDIA INFORMATICA VIA, MINZONI24",
            "_line":[
              {
                "extension":[
                  {
                    "url":"https://fhir.siss.regione.lombardia.it/StructureDefinition/ReteLabLineNumeroCivico",
                    "valueString":"MINZONI24"
                  },
                  {
                    "url":"https://fhir.siss.regione.lombardia.it/StructureDefinition/ReteLabAddressLineVia",
                    "valueString":"V. C/O LOMBARDIA INFORMATICA VIA"
                  }
                ]
              }
            ],
            "city":"MILANO",
            "state":"MI",
            "postalCode":"20158"
          }
        ]
      }
    },
    {
      "fullUrl":"Patient/esempio-paziente-cittadino",
      "resource":{
        "resourceType":"Patient",
        "id":"esempio-paziente-cittadino",
        "meta":{
          "versionId":"1",
          "profile":[
            "https://fhir.siss.regione.lombardia.it/StructureDefinition/ReteLabPatientCittadino"
          ]
        },
        "identifier":[
          {
            "value":"PRDCTT00L02L219G",
            "system":"https://fhir.siss.regione.lombardia.it/Valueset/CodiceFiscale",
            "type":{
              "coding":[
                {
                  "display":"Codice fiscale",
                  "code":"NN",
                  "system":"https://fhir.siss.regione.lombardia.it/Valueset/TipologiaIdentificativoPaziente"
                }
              ]
            }
          },
          {
            "value":"999FJ645",
            "system":"https://fhir.siss.regione.lombardia.it/Valueset/TesseraSanitaria",
            "type":{
              "coding":[
                {
                  "display":"Tessera sanitaria",
                  "code":"SS",
                  "system":"https://fhir.siss.regione.lombardia.it/Valueset/TipologiaIdentificativoPaziente"
                }
              ]
            }
          }
        ],
        "name":[
          {
            "family":"PRODSISS",
            "given":[
              "CENTOOTTANTATRE"
            ]
          }
        ],
        "address":[
          {
            "text":"V. C/O LOMBARDIA INFORMATICA VIA MINZONI 24",
            "city":"MILANO",
            "state":"MI",
            "postalCode":"20158",
            "use":"home",
            "line":[
              {
                "extension":[
                  {
                    "url":"https://fhir.siss.regione.lombardia.it/StructureDefinition/ReteLabAddressLineVia",
                    "valueString":"V. C/O LOMBARDIA INFORMATICA VIA MINZONI 24"
                  }
                ]
              }
            ],
            "extension":[
              {
                "url":"https://fhir.siss.regione.lombardia.it/StructureDefinition/ReteLabAddressCodiceISTAT",
                "valueString":"015146"
              }
            ]
          },
          {
            "text":"V. C/O LOMBARDIA INFORMATICA VIA, MINZONI24",
            "city":"MILANO",
            "state":"MI",
            "postalCode":"20158",
            "use":"temp",
            "line":[
              {
                "extension":[
                  {
                    "url":"https://fhir.siss.regione.lombardia.it/StructureDefinition/ReteLabLineNumeroCivico",
                    "valueString":"MINZONI24"
                  },
                  {
                    "url":"https://fhir.siss.regione.lombardia.it/StructureDefinition/ReteLabAddressLineVia",
                    "valueString":"V. C/O LOMBARDIA INFORMATICA VIA"
                  }
                ]
              }
            ],
            "extension":[
              {
                "url":"https://fhir.siss.regione.lombardia.it/StructureDefinition/ReteLabAddressCodiceISTAT",
                "valueString":"015146"
              }
            ]
          },
          {
            "text":"V. C/O LOMBARDIA INFORMATICA VIA MINZONI 24",
            "city":"MILANO",
            "state":"MI",
            "postalCode":"20158",
            "use":"home",
            "line":[
              {
                "extension":[
                  {
                    "url":"https://fhir.siss.regione.lombardia.it/StructureDefinition/ReteLabAddressLineVia",
                    "valueString":"V. C/O LOMBARDIA INFORMATICA VIA MINZONI 24"
                  }
                ]
              }
            ],
            "extension":[
              {
                "url":"https://fhir.siss.regione.lombardia.it/StructureDefinition/ReteLabAddressCodiceISTAT",
                "valueString":"015146"
              }
            ]
          },
          {
            "text":"V. C/O LOMBARDIA INFORMATICA VIA, MINZONI24",
            "city":"MILANO",
            "state":"MI",
            "postalCode":"20158",
            "use":"home",
            "line":[
              {
                "extension":[
                  {
                    "url":"https://fhir.siss.regione.lombardia.it/StructureDefinition/ReteLabLineNumeroCivico",
                    "valueString":"MINZONI24"
                  },
                  {
                    "url":"https://fhir.siss.regione.lombardia.it/StructureDefinition/ReteLabAddressLineVia",
                    "valueString":"V. C/O LOMBARDIA INFORMATICA VIA"
                  }
                ]
              }
            ],
            "extension":[
              {
                "url":"https://fhir.siss.regione.lombardia.it/StructureDefinition/ReteLabAddressCodiceISTAT",
                "valueString":"015146"
              }
            ]
          }
        ],
        "birthDate":"2000-07-02",
        "gender":"male",
        "extension":[
          {
            "url":"http://hl7.org/fhir/StructureDefinition/patient-birthPlace",
            "valueAddress":{
              "city":"TORINO",
              "state":"TO",
              "extension":[
                {
                  "url":"https://fhir.siss.regione.lombardia.it/StructureDefinition/ReteLabAddressCodiceISTAT",
                  "valueString":"001272"
                }
              ]
            }
          }
        ]
      }
    },
    {
      "fullUrl":"Specimen/esempio-specimen-campione-di-sangue",
      "resource":{
        "resourceType":"Specimen",
        "id":"esempio-specimen-campione-di-sangue",
        "meta":{
          "versionId":"1",
          "profile":[
            "https://fhir.siss.regione.lombardia.it/StructureDefinition/ReteLabSpecimenCampioneLaboratorio"
          ]
        },
        "type":{
          "coding":[
            {
              "code":"121222",
              "display":"Sangue"
            }
          ]
        },
        "collection":{
          "bodySite":{
            "coding":[
              {
                "code":"BR",
                "display":"braccio",
                "system":"LN"
              }
            ]
          },
          "quantity":{
            "value":60,
            "unit":"ml"
          },
          "collectedDateTime":"2022-11-16T15:00:51+01:00"
        },
        "subject":{
          "reference":"Patient/esempio-paziente-cittadino"
        }
      }
    },
    {
      "fullUrl":"ServiceRequest/esempio-servicerequest1-completato",
      "resource":{
        "resourceType":"ServiceRequest",
        "id":"esempio-servicerequest1-completato",
        "meta":{
          "versionId":"1",
          "profile":[
            "https://fhir.siss.regione.lombardia.it/StructureDefinition/ReteLabServiceRequestRichiestaEsamiLab"
          ]
        },
        "intent":"order",
        "requisition":{
          "system":"https://fhir.siss.regione.lombardia.it/sid/PlacerRequisitionNumber",
          "value":"Placer Requisition Value"
        },
        "status":"completed",
        "category":[
          {
            "coding":[
              {
                "system":"https://fhir.siss.regione.lombardia.it/Valueset/CategoriaOrdine",
                "code":"1",
                "display":"Richiesta"
              }
            ]
          }
        ],
        "occurrenceDateTime":"2022-11-16T14:59:37+01:00",
        "priority":"urgent",
        "quantityQuantity":{
          "value":1
        },
        "authoredOn":"2022-11-16T14:59:37+01:00",
        "code":{
          "coding":[
            {
              "system":"https://fhir.siss.regione.lombardia.it/ValueSet/CodificaLOINC",
              "code":"90325",
              "display":"Magnesio totale nelle urine"
            }
          ]
        },
        "identifier":[
          {
            "system":"https://fhir.siss.regione.lombardia.it/sid/PlacerOrderNumber",
            "value":"Placer Order Number"
          },
          {
            "system":"https://fhir.siss.regione.lombardia.it/sid/FillerOrderNumber",
            "value":"Filler Order Number"
          },
          {
            "system":"https://fhir.siss.regione.lombardia.it/sid/OMROrderNumber",
            "value":"6cf5ca2a-f263-11ee-b302-020017048457"
          }
        ],
        "subject":{
          "reference":"Patient/esempio-paziente-cittadino"
        },
        "specimen":[
          {
            "reference":"Specimen/esempio-specimen-campione-di-sangue"
          }
        ],
        "encounter":{
          "reference":"Encounter/esempio-encounter-completato"
        },
        "performer":[
          {
            "reference":"Organization/esempio-2-organization-l4"
          }
        ],
        "orderDetail":[
          {
            "text":"in-service"
          }
        ],
        "requester":{
          "reference":"PractitionerRole/esempio-practitionerrole-responsabile-1"
        }
      }
    },
    {
      "fullUrl":"PractitionerRole/esempio-practitionerrole-responsabile-1",
      "resource":{
        "resourceType":"PractitionerRole",
        "id":"esempio-practitionerrole-responsabile-1",
        "meta":{
          "versionId":"1",
          "profile":[
            "https://fhir.siss.regione.lombardia.it/StructureDefinition/ReteLabPractitionerRoleMedico"
          ]
        },
        "code":[
          {
            "coding":[
              {
                "code":"RESPONSABILE RISULTATI",
                "system":"https://fhir.siss.regione.lombardia.it/ValueSet/QualificaMedico",
                "display":"Medico responsabile dei risultati degli esami"
              }
            ]
          }
        ],
        "practitioner":{
          "reference":"Practitioner/esempio-practitioner-verdi"
        }
      }
    },
    {
      "fullUrl":"Practitioner/esempio-practitioner-verdi",
      "resource":{
        "resourceType":"Practitioner",
        "id":"esempio-practitioner-verdi",
        "meta":{
          "versionId":"1",
          "profile":[
            "https://fhir.siss.regione.lombardia.it/StructureDefinition/ReteLabPractitionerMedico"
          ]
        },
        "identifier":[
          {
            "value":"VRDPLA77E09H264L"
          }
        ],
        "name":[
          {
            "family":"Verdi",
            "given":[
              "Paola"
            ]
          }
        ]
      }
    },
    {
      "fullUrl":"PractitionerRole/esempio-practitionerrole-responsabile-2",
      "resource":{
        "resourceType":"PractitionerRole",
        "id":"esempio-practitionerrole-responsabile-2",
        "meta":{
          "versionId":"1",
          "profile":[
            "https://fhir.siss.regione.lombardia.it/StructureDefinition/ReteLabPractitionerRoleMedico"
          ]
        },
        "code":[
          {
            "coding":[
              {
                "code":"RESPONSABILE RISULTATI",
                "system":"https://fhir.siss.regione.lombardia.it/ValueSet/QualificaMedico",
                "display":"Medico responsabile dei risultati degli esami"
              }
            ]
          }
        ],
        "practitioner":{
          "reference":"Practitioner/esempio-practitioner-biasi"
        }
      }
    },
    {
      "fullUrl":"Practitioner/esempio-practitioner-biasi",
      "resource":{
        "resourceType":"Practitioner",
        "id":"esempio-practitioner-biasi",
        "meta":{
          "versionId":"1",
          "profile":[
            "https://fhir.siss.regione.lombardia.it/StructureDefinition/ReteLabPractitionerMedico"
          ]
        },
        "identifier":[
          {
            "value":"BSINTL55E09H264L"
          }
        ],
        "name":[
          {
            "family":"Biasi",
            "given":[
              "Antonella"
            ]
          }
        ]
      }
    },
    {
      "fullUrl":"Encounter/esempio-encounter-completato",
      "resource":{
        "resourceType":"Encounter",
        "id":"esempio-encounter-completato",
        "meta":{
          "versionId":"1",
          "profile":[
            "https://fhir.siss.regione.lombardia.it/StructureDefinition/ReteLabEncounterInformazioniRichiestaLab"
          ]
        },
        "extension":[
          {
            "url":"https://fhir.siss.regione.lombardia.it/StructureDefinition/ReteLabEncounterServiceRequester",
            "valueReference":{
              "reference":"Organization/esempio-organization-l3"
            }
          }
        ],
        "status":"finished",
        "identifier":[
          {
            "system":"https://fhir.siss.regione.lombardia.it/Valueset/numeroRicovero",
            "type":{
              "coding":[
                {
                  "system":"https://fhir.siss.regione.lombardia.it/CodeSystem/TipologiaIdentificativoEncounter",
                  "code":"NR",
                  "display":"Numero Ricovero"
                }
              ]
            },
            "value":"1",
            "assigner":{
              "reference":"Organization/esempio-organization-l3",
              "display":"Laboratorio Richiedente"
            }
          }
        ],
        "class":{
          "code":"IMP",
          "display":"inpatient encounter",
          "system":"http://terminology.hl7.org/CodeSystem/v3-ActCode"
        }
      }
    },
    {
      "fullUrl":"Organization/esempio-organization-l1",
      "resource":{
        "resourceType":"Organization",
        "id":"esempio-organization-l1",
        "meta":{
          "versionId":"1",
          "profile":[
            "https://fhir.siss.regione.lombardia.it/StructureDefinition/ReteLabOrganizationL1"
          ]
        },
        "identifier":[
          {
            "value":"309672",
            "system":"https://fhir.siss.regione.lombardia.it/sid/codiceIdentificativoEnte"
          }
        ]
      }
    },
    {
      "fullUrl":"Organization/esempio-organization-l2",
      "resource":{
        "resourceType":"Organization",
        "id":"esempio-organization-l2",
        "meta":{
          "versionId":"1",
          "profile":[
            "https://fhir.siss.regione.lombardia.it/StructureDefinition/ReteLabOrganizationL2"
          ]
        },
        "identifier":[
          {
            "value":"309672",
            "system":"https://fhir.siss.regione.lombardia.it/sid/codiceMinisterialePresidio"
          }
        ],
        "partOf":{
          "reference":"Organization/esempio-organization-l1"
        }
      }
    },
    {
      "fullUrl":"Organization/esempio-organization-l3",
      "resource":{
        "resourceType":"Organization",
        "id":"esempio-organization-l3",
        "meta":{
          "versionId":"1",
          "profile":[
            "https://fhir.siss.regione.lombardia.it/StructureDefinition/ReteLabOrganizationL3"
          ]
        },
        "name":"CARDIOLOGIA",
        "identifier":[
          {
            "value":"12211",
            "system":"https://fhir.siss.regione.lombardia.it/sid/codiceMinisterialeReparto"
          }
        ],
        "partOf":{
          "reference":"Organization/esempio-organization-l2"
        }
      }
    },
    {
      "fullUrl":"Organization/esempio-2-organization-l4",
      "resource":{
        "resourceType":"Organization",
        "id":"esempio-2-organization-l4",
        "meta":{
          "versionId":"1",
          "profile":[
            "https://fhir.siss.regione.lombardia.it/StructureDefinition/ReteLabOrganizationL4"
          ]
        },
        "identifier":[
          {
            "value":"0002",
            "system":"https://fhir.siss.regione.lombardia.it/sid/codiceMinisterialeAmbulatorio"
          }
        ],
        "partOf":{
          "reference":"Organization/esempio-2-organization-l3"
        }
      }
    },
    {
      "fullUrl":"Organization/esempio-2-organization-l3",
      "resource":{
        "resourceType":"Organization",
        "id":"esempio-2-organization-l3",
        "meta":{
          "versionId":"1",
          "profile":[
            "https://fhir.siss.regione.lombardia.it/StructureDefinition/ReteLabOrganizationL3"
          ]
        },
        "identifier":[
          {
            "value":"0801",
            "system":"https://fhir.siss.regione.lombardia.it/sid/codiceMinisterialeReparto"
          }
        ],
        "partOf":{
          "reference":"Organization/esempio-2-organization-l2"
        }
      }
    },
    {
      "fullUrl":"Organization/esempio-2-organization-l2",
      "resource":{
        "resourceType":"Organization",
        "id":"esempio-2-organization-l2",
        "meta":{
          "versionId":"1",
          "profile":[
            "https://fhir.siss.regione.lombardia.it/StructureDefinition/ReteLabOrganizationL2"
          ]
        },
        "identifier":[
          {
            "value":"1996",
            "system":"https://fhir.siss.regione.lombardia.it/sid/codiceMinisterialePresidio"
          }
        ],
        "partOf":{
          "reference":"Organization/esempio-2-organization-l1"
        }
      }
    },
    {
      "fullUrl":"Organization/esempio-2-organization-l1",
      "resource":{
        "resourceType":"Organization",
        "id":"esempio-2-organization-l1",
        "meta":{
          "versionId":"1",
          "profile":[
            "https://fhir.siss.regione.lombardia.it/StructureDefinition/ReteLabOrganizationL1"
          ]
        },
        "identifier":[
          {
            "value":"462801",
            "system":"https://fhir.siss.regione.lombardia.it/sid/codiceIdentificativoEnte"
          }
        ]
      }
    }
  ]
}