{
    "resourceType": "Bundle",
    "id": "3eb89bdc-6be5-4436-a4ec-73435eb43562",
    "type": "message",
    "timestamp": "2024-03-18T09:36:26.225Z",
    "meta": {
        "versionId": "1",
        "profile": [
            "https://fhir.siss.regione.lombardia.it/StructureDefinition/ReteLabBundleRispostaNotifica"
        ]
    },
    "entry": [
        {
            "fullUrl": "MessageHeader/b8b16128-0030-419a-bf5c-56ec4b68ed25",
            "resource": {
                "resourceType": "MessageHeader",
                "id": "b8b16128-0030-419a-bf5c-56ec4b68ed25",
                "meta": {
                    "profile": [
                        "https://fhir.siss.regione.lombardia.it/StructureDefinition/ReteLabMessageHeader"
                    ],
                    "versionId": "1",
                    "lastUpdated": "2024-03-18T09:36:26.220Z"
                },
                "eventCoding": {
                    "system": "https://fhir.siss.regione.lombardia.it/ValueSet/CodiceEventoMessageHeader",
                    "code": "ORL^O22",
                    "display": "ORL^O22^ORL_O22"
                },
                "destination": [
                    {
                        "name": "OMR",
                        "software": "Reti di laboratori",
                        "endpoint": "localhost:52773/fhir/retilab/Omr"
                    }
                ],
                "source": {
                    "name": "4",
                    "software": "Postman Galaxy Hospital - Nebula Lab",
                    "endpoint": "pietrodileo.pythonanywhere.com"
                },
                "response": {
                    "identifier": "ab9cf9da-e506-11ee-ad23-020017048457",
                    "code": "ok"
                },
                "focus": [
                    {
                        "reference": "Task/c9ec350f-b192-4bd9-981f-de9edf113608"
                    }
                ]
            }
        },
        {
            "fullUrl": "Task/c9ec350f-b192-4bd9-981f-de9edf113608",
            "resource": {
                "resourceType": "Task",
                "id": "c9ec350f-b192-4bd9-981f-de9edf113608",
                "meta": {
                    "profile": [
                        "https://fhir.siss.regione.lombardia.it/StructureDefinition/ReteLabTaskStatoRichiesta"
                    ],
                    "versionId": "1"
                },
                "focus": {
                    "reference": "ServiceRequest/e2bdf00d-2235-4465-8b9c-944e337efd47"
                },
                "status": "accepted",
                "intent": "order"
            }
        },
        {
            "fullUrl": "Encounter/ace5cde7-33f3-4d36-9d6b-9a837ed7fdcb",
            "resource": {
                "resourceType": "Encounter",
                "id": "ace5cde7-33f3-4d36-9d6b-9a837ed7fdcb",
                "meta": {
                    "profile": [
                        "https://fhir.siss.regione.lombardia.it/StructureDefinition/ReteLabEncounterInformazioniRichiestaLab"
                    ],
                    "versionId": "1"
                },
                "identifier": [
                    {
                        "system": "https://fhir.siss.regione.lombardia.it/CodeSystem/numeroRicovero",
                        "type": {
                            "coding": [
                                {
                                    "system": "https://fhir.siss.regione.lombardia.it/CodeSystem/numeroRicovero",
                                    "code": "NR"
                                }
                            ]
                        },
                        "value": "202300001",
                        "assigner": {
                            "reference": "Organization/37d47b20-fbe0-11ed-99f7-02001700b287",
                            "display": "Laboratorio richiedente"
                        }
                    }
                ],
                "status": "cancelled",
                "class": {
                    "system": "http://terminology.hl7.org/CodeSystem/v3-ActCode",
                    "code": "IMP",
                    "display": "Impatient"
                },
                "subject": {
                    "reference": "Patient/6686199c-f386-4345-a178-5e98023575f7"
                },
                "basedOn": [
                    {
                        "reference": "ServiceRequest/e2bdf00d-2235-4465-8b9c-944e337efd47"
                    }
                ],
                "extension": [
                    {
                        "url": "https://fhir.siss.regione.lombardia.it/StructureDefinition/ReteLabEncounterServiceRequester",
                        "valueReference": {
                            "reference": "Organization/37d47b20-fbe0-11ed-99f7-02001700b287"
                        }
                    },
                    {
                        "url": "https://fhir.siss.regione.lombardia.it/StructureDefinition/ReteLabEncounterAnamnesi",
                        "valueString": "Il paziente ha riferito di avere avuto episodi di vertigini negli ultimi mesi"
                    },
                    {
                        "url": "https://fhir.siss.regione.lombardia.it/StructureDefinition/ReteLabEncounterDettaglioOperatore",
                        "valueString": "Si è provveduto alla raccolta dei campioni biologoci del paziente"
                    },
                    {
                        "url": "https://fhir.siss.regione.lombardia.it/StructureDefinition/ReteLabEncounterNotePaziente",
                        "valueString": "Sono stati prelevati campioni di sangue dal paziente per l'esecuzione degli esami di laboratorio prescritti."
                    }
                ]
            }
        },
        {
            "fullUrl": "ServiceRequest/e2bdf00d-2235-4465-8b9c-944e337efd47",
            "resource": {
                "resourceType": "ServiceRequest",
                "id": "e2bdf00d-2235-4465-8b9c-944e337efd47",
                "meta": {
                    "profile": [
                        "https://fhir.siss.regione.lombardia.it/StructureDefinition/ReteLabServiceRequestRichiestaEsamiLab"
                    ],
                    "versionId": "1"
                },
                "identifier": [
                    {
                        "system": "https://fhir.siss.regione.lombardia.it/sid/PlacerOrderNumber",
                        "value": "1-0089"
                    },
                    {
                        "system": "https://fhir.siss.regione.lombardia.it/sid/FillerOrderNumber",
                        "value": "FillerOrderNumber"
                    },
                    {
                        "system": "https://fhir.siss.regione.lombardia.it/sid/OMROrderNumber",
                        "value": "7c913641-e502-11ee-ba65-020017048457"
                    }
                ],
                "requisition": {
                    "system": "https://fhir.siss.regione.lombardia.it/sid/PlacerRequisitionNumber",
                    "value": "0000-0045-"
                },
                "status": "revoked",
                "intent": "order",
                "priority": "asap",
                "code": {
                    "coding": [
                        {
                            "system": "https://fhir.siss.regione.lombardia.it/ValueSet/CodificaLOINC",
                            "code": "90271",
                            "display": "Glicemia a digiuno"
                        }
                    ]
                },
                "category": [
                    {
                        "coding": [
                            {
                                "system": "https://fhir.siss.regione.lombardia.it/Valueset/CategoriaOrdine",
                                "code": "1",
                                "display": "Richiesta"
                            }
                        ]
                    }
                ],
                "orderDetail": {
                    "coding": [
                        {
                            "system": "https://fhir.siss.regione.lombardia.it/sid/identificativoInternoUnitaErogante",
                            "code": "0002"
                        },
                        {
                            "system": "https://fhir.siss.regione.lombardia.it/sid/codiceMinisterialeReparto",
                            "code": "0801"
                        },
                        {
                            "system": "https://fhir.siss.regione.lombardia.it/sid/codiceMinisterialePresidio",
                            "code": "03091300"
                        },
                        {
                            "system": "https://fhir.siss.regione.lombardia.it/sid/identificativoInternoSalaErogatrice",
                            "code": "LAB"
                        }
                    ]
                },
                "quantityQuantity": {
                    "value": 1
                },
                "subject": {
                    "reference": "Patient/6686199c-f386-4345-a178-5e98023575f7",
                    "display": "Centoottantatre Prodsiss"
                },
                "encounter": {
                    "reference": "Encounter/ace5cde7-33f3-4d36-9d6b-9a837ed7fdcb",
                    "display": "Informazioni Richiesta Lab"
                },
                "authoredOn": "2022-11-16T14:59:37Z",
                "supportingInfo": [
                    {
                        "reference": "Observation/d52a9b60-d45e-11ed-afa1-0242ac120002",
                        "display": "Info Cliniche"
                    }
                ],
                "performer": [
                    {
                        "reference": "Organization/30d4p103-fbe0-11ed-99f7-02001700b287"
                    }
                ],
                "reasonCode": [
                    {
                        "coding": [
                            {
                                "system": "http://hl7.org/fhir/sid/icd-9",
                                "code": "V173",
                                "display": "Fam hx-ischem heart dis"
                            }
                        ]
                    }
                ]
            }
        },
        {
            "fullUrl": "Organization/7195779b-9c43-4074-a2d4-7e34e18b1ae4",
            "resource": {
                "resourceType": "Organization",
                "id": "7195779b-9c43-4074-a2d4-7e34e18b1ae4",
                "meta": {
                    "profile": [
                        "https://fhir.siss.regione.lombardia.it/StructureDefinition/ReteLabOrganizationL1"
                    ]
                },
                "identifier": [
                    {
                        "system": "https://fhir.siss.regione.lombardia.it/sid/codiceIdentificativoEnte",
                        "value": "309672"
                    }
                ],
                "name": "Denominazione dell'ente L1"
            }
        },
        {
            "fullUrl": "Organization/37d47b20-fbe0-11ed-99f7-02001700b287",
            "resource": {
                "resourceType": "Organization",
                "id": "37d47b20-fbe0-11ed-99f7-02001700b287",
                "meta": {
                    "profile": [
                        "https://fhir.siss.regione.lombardia.it/StructureDefinition/ReteLabOrganizationL2"
                    ]
                },
                "identifier": [
                    {
                        "system": "https://fhir.siss.regione.lombardia.it/sid/codiceMinisterialePresidio",
                        "value": "1234"
                    }
                ],
                "partOf": {
                    "reference": "Organization/7195779b-9c43-4074-a2d4-7e34e18b1ae4"
                },
                "name": "Descrizione del presidio L2"
            }
        },
        {
            "fullUrl": "Organization/34568719c-9c43-4074-a2d4-7e34e18b1ae4",
            "resource": {
                "resourceType": "Organization",
                "id": "34568719c-9c43-4074-a2d4-7e34e18b1ae4",
                "meta": {
                    "profile": [
                        "https://fhir.siss.regione.lombardia.it/StructureDefinition/ReteLabOrganizationL1"
                    ]
                },
                "identifier": [
                    {
                        "system": "https://fhir.siss.regione.lombardia.it/sid/codiceIdentificativoEnte",
                        "value": "Codice L1 ES}}"
                    }
                ],
                "name": "Denominazione dell'ente L1"
            }
        },
        {
            "fullUrl": "Organization/30d4p103-fbe0-11ed-99f7-02001700b287",
            "resource": {
                "resourceType": "Organization",
                "id": "30d4p103-fbe0-11ed-99f7-02001700b287",
                "meta": {
                    "profile": [
                        "https://fhir.siss.regione.lombardia.it/StructureDefinition/ReteLabOrganizationL2"
                    ]
                },
                "identifier": [
                    {
                        "system": "https://fhir.siss.regione.lombardia.it/sid/codiceMinisterialePresidio",
                        "value": "Codice L2 ES"
                    }
                ],
                "partOf": {
                    "reference": "Organization/34568719c-9c43-4074-a2d4-7e34e18b1ae4"
                },
                "name": "Descrizione del presidio L2"
            }
        },
        {
            "fullUrl": "Patient/6686199c-f386-4345-a178-5e98023575f7",
            "resource": {
                "resourceType": "Patient",
                "id": "6686199c-f386-4345-a178-5e98023575f7",
                "meta": {
                    "profile": [
                        "https://fhir.siss.regione.lombardia.it/StructureDefinition/ReteLabPatientCittadino"
                    ]
                },
                "identifier": [
                    {
                        "system": "https://fhir.siss.regione.lombardia.it/CodeSystem/CodiceFiscale",
                        "type": {
                            "coding": [
                                {
                                    "system": "https://fhir.siss.regione.lombardia.it/CodeSystem/CodiceFiscale",
                                    "code": "NN",
                                    "display": "Codice fiscale"
                                }
                            ]
                        },
                        "value": "PRDCTT00L02L219G"
                    },
                    {
                        "system": "https://fhir.siss.regione.lombardia.it/CodeSystem/TesseraSanitaria",
                        "type": {
                            "coding": [
                                {
                                    "system": "https://fhir.siss.regione.lombardia.it/CodeSystem/TesseraSanitaria",
                                    "code": "SS",
                                    "display": "Tessera Sanitaria"
                                }
                            ]
                        },
                        "value": "999FJ645"
                    }
                ],
                "name": [
                    {
                        "family": "Prodsiss",
                        "given": [
                            "Centoottantatre"
                        ]
                    }
                ],
                "gender": "male",
                "birthDate": "2000-07-02",
                "address": [
                    {
                        "use": "BDL",
                        "city": "TORINO",
                        "state": "TO",
                        "postalCode": "20158",
                        "extension": [
                            {
                                "url": "https://fhir.siss.regione.lombardia.it/StructureDefinition/ReteLabAddressCodiceISTAT",
                                "valueString": "001272"
                            }
                        ]
                    },
                    {
                        "use": "L",
                        "text": "V. C/O LOMBARDIA INFORMATICA VIA MINZONI, 24",
                        "line": [
                            "V. C/O LOMBARDIA INFORMATICA VIA MINZONI",
                            {
                                "extension": [
                                    {
                                        "url": "https://fhir.siss.regione.lombardia.it/StructureDefinition/ReteLabAddressLineNumeroCivico",
                                        "valueString": "24"
                                    }
                                ]
                            }
                        ],
                        "city": "MILANO",
                        "state": "MI",
                        "postalCode": "20158",
                        "extension": [
                            {
                                "url": "https://fhir.siss.regione.lombardia.it/StructureDefinition/ReteLabAddressCodiceISTAT",
                                "valueString": "015146"
                            }
                        ]
                    },
                    {
                        "use": "H",
                        "text": "V. C/O LOMBARDIA INFORMATICA VIA MINZONI, 24",
                        "line": [
                            "V. C/O LOMBARDIA INFORMATICA VIA MINZONI",
                            {
                                "extension": [
                                    {
                                        "url": "https://fhir.siss.regione.lombardia.it/StructureDefinition/ReteLabAddressLineNumeroCivico",
                                        "valueString": "24"
                                    }
                                ]
                            }
                        ],
                        "city": "MILANO",
                        "state": "MI",
                        "postalCode": "20158",
                        "extension": [
                            {
                                "url": "https://fhir.siss.regione.lombardia.it/StructureDefinition/ReteLabAddressCodiceISTAT",
                                "valueString": "015146"
                            }
                        ]
                    }
                ]
            }
        }
    ]
}