{
    "richiesta": "Modification Request",
    "resourceType": "Bundle",
    "id": "e11e5258-e793-11ee-98a7-020017048457",
    "type": "message",
    "timestamp": "2024-03-21T15:01:20.511Z",
    "meta": {
        "versionId": "1",
        "profile": [
            "https://fhir.siss.regione.lombardia.it/StructureDefinition/ReteLabBundleModificaOrdine"
        ]
    },
    "entry": [
        {
            "fullUrl": "MessageHeader/e11e5276-e793-11ee-98a7-020017048457",
            "resource": {
                "resourceType": "MessageHeader",
                "id": "e11e5276-e793-11ee-98a7-020017048457",
                "meta": {
                    "profile": [
                        "https://fhir.siss.regione.lombardia.it/StructureDefinition/ReteLabMessageHeader"
                    ],
                    "versionId": "1",
                    "lastUpdated": "2022-11-16T15:00:51+01:00"
                },
                "eventCoding": {
                    "system": "https://fhir.siss.regione.lombardia.it/ValueSet/CodiceEventoMessageHeader",
                    "code": "OML^O21",
                    "display": "OML^O21^OML_O21"
                },
                "destination": [
                    {
                        "name": "5",
                        "endpoint": "https://pietrodileo.pythonanywhere.com",
                        "software": "Postman Cosmo Hospital - Asteroid Lab"
                    }
                ],
                "source": {
                    "name": "OMR",
                    "software": "Order Manager Regionale",
                    "endpoint": "localhost:52773/fhir/retilab/Omr"
                },
                "focus": [
                    {
                        "reference": "ServiceRequest/e2bdf00d-2235-4465-8b9c-944e337efd47"
                    }
                ]
            }
        },
        {
            "fullUrl": "Encounter/ace5cde7-33f3-4d36-9d6b-9a837ed7fdcb",
            "resource": {
                "resourceType": "Encounter",
                "id": "ace5cde7-33f3-4d36-9d6b-9a837ed7fdcb",
                "meta": {
                    "profile": [
                        "https://fhir.siss.regione.lombardia.it/StructureDefinition/ReteLabEncounterInformazioniRichiestaLab"
                    ],
                    "versionId": "1"
                },
                "identifier": [
                    {
                        "system": "https://fhir.siss.regione.lombardia.it/CodeSystem/numeroRicovero",
                        "type": {
                            "coding": [
                                {
                                    "system": "https://fhir.siss.regione.lombardia.it/CodeSystem/numeroRicovero",
                                    "code": "NR"
                                }
                            ]
                        },
                        "value": "202300001",
                        "assigner": {
                            "reference": "Organization/37d47b20-fbe0-11ed-99f7-02001700b287",
                            "display": "Laboratorio richiedente"
                        }
                    }
                ],
                "status": "planned",
                "class": {
                    "system": "http://terminology.hl7.org/CodeSystem/v3-ActCode",
                    "code": "IMP",
                    "display": "Impatient"
                },
                "subject": {
                    "reference": "Patient/6686199c-f386-4345-a178-5e98023575f7"
                },
                "basedOn": [
                    {
                        "reference": "ServiceRequest/e2bdf00d-2235-4465-8b9c-944e337efd47"
                    }
                ],
                "extension": [
                    {
                        "url": "https://fhir.siss.regione.lombardia.it/StructureDefinition/ReteLabEncounterServiceRequester",
                        "valueReference": {
                            "reference": "Organization/37d47b20-fbe0-11ed-99f7-02001700b287"
                        }
                    },
                    {
                        "url": "https://fhir.siss.regione.lombardia.it/StructureDefinition/ReteLabEncounterAnamnesi",
                        "valueString": "Il paziente ha riferito di avere avuto episodi di vertigini negli ultimi mesi"
                    },
                    {
                        "url": "https://fhir.siss.regione.lombardia.it/StructureDefinition/ReteLabEncounterDettaglioOperatore",
                        "valueString": "Si è provveduto alla raccolta dei campioni biologoci del paziente"
                    },
                    {
                        "url": "https://fhir.siss.regione.lombardia.it/StructureDefinition/ReteLabEncounterNotePaziente",
                        "valueString": "Sono stati prelevati campioni di sangue dal paziente per l'esecuzione degli esami di laboratorio prescritti."
                    }
                ]
            }
        },
        {
            "fullUrl": "ServiceRequest/e2bdf00d-2235-4465-8b9c-944e337efd47",
            "resource": {
                "resourceType": "ServiceRequest",
                "id": "e2bdf00d-2235-4465-8b9c-944e337efd47",
                "meta": {
                    "profile": [
                        "https://fhir.siss.regione.lombardia.it/StructureDefinition/ReteLabServiceRequestRichiestaEsamiLab"
                    ],
                    "versionId": "1"
                },
                "replaces": [
                    {
                        "reference": "ServiceRequest/a2gbe11s-2235-4465-8b9c-944e337elk99"
                    }
                ],
                "identifier": [
                    {
                        "system": "https://fhir.siss.regione.lombardia.it/sid/PlacerOrderNumber",
                        "value": "1-0027"
                    },
                    {
                        "system": "https://fhir.siss.regione.lombardia.it/sid/FillerOrderNumber",
                        "value": "FillerOrderNumber"
                    },
                    {
                        "system": "https://fhir.siss.regione.lombardia.it/sid/OMROrderNumber",
                        "value": "170cadca-e790-11ee-9fa1-020017048457"
                    }
                ],
                "requisition": {
                    "system": "https://fhir.siss.regione.lombardia.it/sid/PlacerRequisitionNumber",
                    "value": "0000-0014-"
                },
                "status": "active",
                "intent": "order",
                "priority": "asap",
                "code": {
                    "coding": [
                        {
                            "system": "https://fhir.siss.regione.lombardia.it/ValueSet/CodificaLOINC",
                            "code": "90325",
                            "display": "Magnesio totale nelle urine"
                        }
                    ]
                },
                "category": [
                    {
                        "coding": [
                            {
                                "system": "https://fhir.siss.regione.lombardia.it/Valueset/CategoriaOrdine",
                                "code": "1",
                                "display": "Richiesta"
                            }
                        ]
                    }
                ],
                "orderDetail": {
                    "coding": [
                        {
                            "system": "https://fhir.siss.regione.lombardia.it/sid/identificativoInternoUnitaErogante",
                            "code": "0002"
                        },
                        {
                            "system": "https://fhir.siss.regione.lombardia.it/sid/codiceMinisterialeReparto",
                            "code": "0801"
                        },
                        {
                            "system": "https://fhir.siss.regione.lombardia.it/sid/codiceMinisterialePresidio",
                            "code": "03091300"
                        },
                        {
                            "system": "https://fhir.siss.regione.lombardia.it/sid/identificativoInternoSalaErogatrice",
                            "code": "LAB"
                        }
                    ]
                },
                "quantityQuantity": {
                    "value": 1
                },
                "subject": {
                    "reference": "Patient/6686199c-f386-4345-a178-5e98023575f7",
                    "display": "Centoottantatre Prodsiss"
                },
                "encounter": {
                    "reference": "Encounter/ace5cde7-33f3-4d36-9d6b-9a837ed7fdcb",
                    "display": "Informazioni Richiesta Lab"
                },
                "authoredOn": "2022-11-16T14:59:37Z",
                "supportingInfo": [
                    {
                        "reference": "Observation/d52a9b60-d45e-11ed-afa1-0242ac120002",
                        "display": "Info Cliniche"
                    }
                ],
                "performer": [
                    {
                        "reference": "Organization/30d4p103-fbe0-11ed-99f7-02001700b287"
                    }
                ],
                "reasonCode": [
                    {
                        "coding": [
                            {
                                "system": "http://hl7.org/fhir/sid/icd-9",
                                "code": "V173",
                                "display": "Fam hx-ischem heart dis"
                            }
                        ]
                    }
                ],
                "specimen": [
                    {
                        "reference": "Specimen/4bbecc4b-60b4-4b4a-9b99-ce39b1f69876",
                        "display": "Campione da analizzare"
                    }
                ]
            }
        },
        {
            "fullUrl": "ServiceRequest/a2gbe11s-2235-4465-8b9c-944e337elk99",
            "resource": {
                "resourceType": "ServiceRequest",
                "id": "a2gbe11s-2235-4465-8b9c-944e337elk99",
                "meta": {
                    "profile": [
                        "https://fhir.siss.regione.lombardia.it/StructureDefinition/ReteLabServiceRequestRichiestaEsamiLab"
                    ],
                    "versionId": "1"
                },
                "identifier": [
                    {
                        "system": "https://fhir.siss.regione.lombardia.it/sid/PlacerOrderNumber",
                        "value": "1-0027"
                    },
                    {
                        "system": "https://fhir.siss.regione.lombardia.it/sid/FillerOrderNumber",
                        "value": "FillerOrderNumber"
                    },
                    {
                        "system": "https://fhir.siss.regione.lombardia.it/sid/OMROrderNumber",
                        "value": "170cadca-e790-11ee-9fa1-020017048457"
                    }
                ],
                "requisition": {
                    "system": "https://fhir.siss.regione.lombardia.it/sid/PlacerRequisitionNumber",
                    "value": "0000-0014-"
                },
                "status": "revoked",
                "intent": "order",
                "priority": "asap",
                "code": {
                    "coding": [
                        {
                            "system": "https://fhir.siss.regione.lombardia.it/ValueSet/CodificaLOINC",
                            "code": "90013",
                            "display": "Chetosteroidi nelle urine"
                        }
                    ]
                },
                "category": [
                    {
                        "coding": [
                            {
                                "system": "https://fhir.siss.regione.lombardia.it/Valueset/CategoriaOrdine",
                                "code": "1",
                                "display": "Richiesta"
                            }
                        ]
                    }
                ],
                "quantityQuantity": {
                    "value": 1
                },
                "authoredOn": "2022-11-16T14:59:37Z",
                "reasonCode": [
                    {
                        "coding": [
                            {
                                "system": "http://hl7.org/fhir/sid/icd-9",
                                "code": "V173",
                                "display": "Fam hx-ischem heart dis"
                            }
                        ]
                    }
                ],
                "orderDetail": {
                    "coding": [
                        {
                            "system": "https://fhir.siss.regione.lombardia.it/sid/identificativoInternoUnitaErogante",
                            "code": "0002"
                        },
                        {
                            "system": "https://fhir.siss.regione.lombardia.it/sid/codiceMinisterialeReparto",
                            "code": "0801"
                        },
                        {
                            "system": "https://fhir.siss.regione.lombardia.it/sid/codiceMinisterialePresidio",
                            "code": "03091300"
                        },
                        {
                            "system": "https://fhir.siss.regione.lombardia.it/sid/identificativoInternoSalaErogatrice",
                            "code": "LAB"
                        }
                    ]
                }
            }
        },
        {
            "fullUrl": "Organization/7195779b-9c43-4074-a2d4-7e34e18b1ae4",
            "resource": {
                "resourceType": "Organization",
                "id": "7195779b-9c43-4074-a2d4-7e34e18b1ae4",
                "meta": {
                    "profile": [
                        "https://fhir.siss.regione.lombardia.it/StructureDefinition/ReteLabOrganizationL1"
                    ]
                },
                "identifier": [
                    {
                        "system": "https://fhir.siss.regione.lombardia.it/sid/codiceIdentificativoEnte",
                        "value": "309672"
                    }
                ],
                "name": "Denominazione dell'ente L1"
            }
        },
        {
            "fullUrl": "Organization/37d47b20-fbe0-11ed-99f7-02001700b287",
            "resource": {
                "resourceType": "Organization",
                "id": "37d47b20-fbe0-11ed-99f7-02001700b287",
                "meta": {
                    "profile": [
                        "https://fhir.siss.regione.lombardia.it/StructureDefinition/ReteLabOrganizationL2"
                    ]
                },
                "identifier": [
                    {
                        "system": "https://fhir.siss.regione.lombardia.it/sid/codiceMinisterialePresidio",
                        "value": "1234"
                    }
                ],
                "partOf": {
                    "reference": "Organization/7195779b-9c43-4074-a2d4-7e34e18b1ae4"
                },
                "name": "Descrizione del presidio L2"
            }
        },
        {
            "fullUrl": "Organization/34568719c-9c43-4074-a2d4-7e34e18b1ae4",
            "resource": {
                "resourceType": "Organization",
                "id": "34568719c-9c43-4074-a2d4-7e34e18b1ae4",
                "meta": {
                    "profile": [
                        "https://fhir.siss.regione.lombardia.it/StructureDefinition/ReteLabOrganizationL1"
                    ]
                },
                "identifier": [
                    {
                        "system": "https://fhir.siss.regione.lombardia.it/sid/codiceIdentificativoEnte",
                        "value": "Codice L1 ES}}"
                    }
                ],
                "name": "Denominazione dell'ente L1"
            }
        },
        {
            "fullUrl": "Specimen/4bbecc4b-60b4-4b4a-9b99-ce39b1f69876",
            "resource": {
                "resourceType": "Specimen",
                "id": "4bbecc4b-60b4-4b4a-9b99-ce39b1f69876",
                "meta": {
                    "profile": [
                        "https://fhir.siss.regione.lombardia.it/StructureDefinition/ReteLabSpecimenCampioneDaAnalizzare"
                    ],
                    "versionId": 1
                },
                "type": {
                    "coding": [
                        {
                            "code": "119297000",
                            "display": "Blood specimen (specimen)",
                            "system": "SNOMED"
                        }
                    ]
                },
                "subject": {
                    "reference": "Patient/6686199c-f386-4345-a178-5e98023575f7"
                },
                "receivedTime": "2022-11-16T14:59:37Z",
                "collection": {
                    "collectedDateTime": "2022-11-16T14:59:37Z",
                    "quantity": {
                        "value": 0
                    },
                    "bodySite": {
                        "coding": [
                            {
                                "system": "https://fhir.siss.regione.lombardia.it/ValueSet/CodificaLOINC",
                                "code": "TBD",
                                "display": "TBD"
                            }
                        ]
                    }
                }
            }
        },
        {
            "fullUrl": "Organization/30d4p103-fbe0-11ed-99f7-02001700b287",
            "resource": {
                "resourceType": "Organization",
                "id": "30d4p103-fbe0-11ed-99f7-02001700b287",
                "meta": {
                    "profile": [
                        "https://fhir.siss.regione.lombardia.it/StructureDefinition/ReteLabOrganizationL2"
                    ]
                },
                "identifier": [
                    {
                        "system": "https://fhir.siss.regione.lombardia.it/sid/codiceMinisterialePresidio",
                        "value": "Codice L2 ES"
                    }
                ],
                "partOf": {
                    "reference": "Organization/34568719c-9c43-4074-a2d4-7e34e18b1ae4"
                },
                "name": "Descrizione del presidio L2"
            }
        },
        {
            "fullUrl": "Patient/6686199c-f386-4345-a178-5e98023575f7",
            "resource": {
                "resourceType": "Patient",
                "id": "6686199c-f386-4345-a178-5e98023575f7",
                "meta": {
                    "profile": [
                        "https://fhir.siss.regione.lombardia.it/StructureDefinition/ReteLabPatientCittadino"
                    ]
                },
                "identifier": [
                    {
                        "system": "https://fhir.siss.regione.lombardia.it/CodeSystem/CodiceFiscale",
                        "type": {
                            "coding": [
                                {
                                    "system": "https://fhir.siss.regione.lombardia.it/CodeSystem/CodiceFiscale",
                                    "code": "NN",
                                    "display": "Codice fiscale"
                                }
                            ]
                        },
                        "value": "PRDCTT00L02L219G"
                    },
                    {
                        "system": "https://fhir.siss.regione.lombardia.it/CodeSystem/TesseraSanitaria",
                        "type": {
                            "coding": [
                                {
                                    "system": "https://fhir.siss.regione.lombardia.it/CodeSystem/TesseraSanitaria",
                                    "code": "SS",
                                    "display": "Tessera Sanitaria"
                                }
                            ]
                        },
                        "value": "999FJ645"
                    }
                ],
                "name": [
                    {
                        "family": "Prodsiss",
                        "given": [
                            "Centoottantatre"
                        ]
                    }
                ],
                "gender": "male",
                "birthDate": "2000-07-02",
                "address": [
                    {
                        "use": "home",
                        "city": "TORINO",
                        "state": "TO",
                        "postalCode": "20158",
                        "extension": [
                            {
                                "url": "https://fhir.siss.regione.lombardia.it/StructureDefinition/ReteLabAddressCodiceISTAT",
                                "valueString": "001272"
                            }
                        ]
                    },
                    {
                        "use": "home",
                        "text": "V. C/O LOMBARDIA INFORMATICA VIA MINZONI, 24",
                        "line": [
                            "V. C/O LOMBARDIA INFORMATICA VIA MINZONI",
                            {
                                "extension": [
                                    {
                                        "url": "https://fhir.siss.regione.lombardia.it/StructureDefinition/ReteLabAddressLineNumeroCivico",
                                        "valueString": "24"
                                    }
                                ]
                            }
                        ],
                        "city": "MILANO",
                        "state": "MI",
                        "postalCode": "20158",
                        "extension": [
                            {
                                "url": "https://fhir.siss.regione.lombardia.it/StructureDefinition/ReteLabAddressCodiceISTAT",
                                "valueString": "015146"
                            }
                        ]
                    },
                    {
                        "use": "home",
                        "text": "V. C/O LOMBARDIA INFORMATICA VIA MINZONI, 24",
                        "line": [
                            "V. C/O LOMBARDIA INFORMATICA VIA MINZONI",
                            {
                                "extension": [
                                    {
                                        "url": "https://fhir.siss.regione.lombardia.it/StructureDefinition/ReteLabAddressLineNumeroCivico",
                                        "valueString": "24"
                                    }
                                ]
                            }
                        ],
                        "city": "MILANO",
                        "state": "MI",
                        "postalCode": "20158",
                        "extension": [
                            {
                                "url": "https://fhir.siss.regione.lombardia.it/StructureDefinition/ReteLabAddressCodiceISTAT",
                                "valueString": "015146"
                            }
                        ]
                    }
                ]
            }
        }
    ]
}