{
    "richiesta":"Exam Executed",
    "resourceType":"Bundle",
    "id":"f69ee823-5c54-4b5f-aa9f-4969ee087960",
    "type":"message",
    "timestamp":"2024-03-29T09:35:18.442Z",
    "meta":{
      "versionId":"1",
      "profile":[
        "https://fhir.siss.regione.lombardia.it/StructureDefinition/ReteLabBundleNotificaServente"
      ]
    },
    "entry":[
      {
        "fullUrl":"MessageHeader/3636e58b-bfc3-40a9-99e3-be26fc9f729e",
        "resource":{
          "resourceType":"MessageHeader",
          "id":"3636e58b-bfc3-40a9-99e3-be26fc9f729e",
          "meta":{
            "profile":[
              "https://fhir.siss.regione.lombardia.it/StructureDefinition/ReteLabMessageHeader"
            ],
            "versionId":"1",
            "lastUpdated":"2022-11-16T15:00:51+01:00"
          },
          "eventCoding":{
            "system":"https://fhir.siss.regione.lombardia.it/ValueSet/CodiceEventoMessageHeader",
            "code":"OML^O21",
            "display":"OML^O21^OML_O21"
          },
          "destination":[
            {
              "name":"1",
              "endpoint":"https://pietrodileo.pythonanywhere.com",
              "software":"Postman Space Hospital - Comet Lab"
            }
          ],
          "source":{
            "name":"OMR",
            "software":"Reti di Laboratorio",
            "endpoint":"localhost:52773/fhir/retilab/Omr"
          },
          "focus":[
            {
              "reference":"Task/778fb6c0-e4f0-459a-9940-fedf650593ee"
            }
          ]
        }
      },
      {
        "fullUrl":"Task/778fb6c0-e4f0-459a-9940-fedf650593ee",
        "resource":{
          "resourceType":"Task",
          "id":"778fb6c0-e4f0-459a-9940-fedf650593ee",
          "meta":{
            "profile":[
              "https://fhir.siss.regione.lombardia.it/StructureDefinition/ReteLabTaskStatoRichiesta"
            ],
            "versionId":"1"
          },
          "focus":{
            "reference":"ServiceRequest/a7co152e-qxb5-99uu-u110-00z44xagx6x2"
          },
          "status":"completed",
          "intent":"order-filler"
        }
      },
      {
        "fullUrl":"Encounter/ace5cde7-33f3-4d36-9d6b-9a837ed7fdcb",
        "resource":{
          "resourceType":"Encounter",
          "id":"ace5cde7-33f3-4d36-9d6b-9a837ed7fdcb",
          "meta":{
            "profile":[
              "https://fhir.siss.regione.lombardia.it/StructureDefinition/ReteLabEncounterInformazioniRichiestaLab"
            ],
            "versionId":"1"
          },
          "identifier":[
            {
              "system":"https://fhir.siss.regione.lombardia.it/CodeSystem/numeroRicovero",
              "type":{
                "coding":[
                  {
                    "system":"https://fhir.siss.regione.lombardia.it/CodeSystem/numeroRicovero",
                    "code":"NR"
                  }
                ]
              },
              "value":"202300001",
              "assigner":{
                "reference":"Organization/30d4p103-fbe0-11ed-99f7-02001700b287",
                "display":"Laboratorio richiedente"
              }
            }
          ],
          "status":"in-progress",
          "class":{
            "system":"http://terminology.hl7.org/CodeSystem/v3-ActCode",
            "code":"IMP",
            "display":"Impatient"
          },
          "subject":{
            "reference":"Patient/6686199c-f386-4345-a178-5e98023575f7"
          },
          "basedOn":[
            {
              "reference":"ServiceRequest/a7co152e-qxb5-99uu-u110-00z44xagx6x2"
            }
          ],
          "extension":[
            {
              "url":"https://fhir.siss.regione.lombardia.it/StructureDefinition/ReteLabEncounterServiceRequester",
              "valueReference":{
                "reference":"Organization/30d4p103-fbe0-11ed-99f7-02001700b287"
              }
            },
            {
              "url":"https://fhir.siss.regione.lombardia.it/StructureDefinition/ReteLabEncounterAnamnesi",
              "valueString":"Il paziente ha riferito di avere avuto episodi di vertigini negli ultimi mesi"
            },
            {
              "url":"https://fhir.siss.regione.lombardia.it/StructureDefinition/ReteLabEncounterDettaglioOperatore",
              "valueString":"Si è provveduto alla raccolta dei campioni biologoci del paziente"
            },
            {
              "url":"https://fhir.siss.regione.lombardia.it/StructureDefinition/ReteLabEncounterNotePaziente",
              "valueString":"Sono stati prelevati campioni di sangue dal paziente per l'esecuzione degli esami di laboratorio prescritti."
            }
          ]
        }
      },
      {
        "fullUrl":"ServiceRequest/a7co152e-qxb5-99uu-u110-00z44xagx6x2",
        "resource":{
          "resourceType":"ServiceRequest",
          "id":"a7co152e-qxb5-99uu-u110-00z44xagx6x2",
          "meta":{
            "profile":[
              "https://fhir.siss.regione.lombardia.it/StructureDefinition/ReteLabServiceRequestRichiestaEsamiLab"
            ],
            "versionId":"1"
          },
          "identifier":[
            {
              "system":"https://fhir.siss.regione.lombardia.it/sid/FillerOrderNumber",
              "value":"FillerOrderNumber1"
            },
            {
              "system":"https://fhir.siss.regione.lombardia.it/sid/OMROrderNumber",
              "value":"a88d90a8-edb8-11ee-99ea-020017048457"
            }
          ],
          "status":"active",
          "requisition":{
            "system":"https://fhir.siss.regione.lombardia.it/sid/PlacerRequisitionNumber",
            "value":"0000-0037-"
          },
          "intent":"order-filler",
          "priority":"asap",
          "code":{
            "coding":[
              {
                "system":"https://fhir.siss.regione.lombardia.it/ValueSet/CodificaLOINC",
                "code":"90622",
                "display":"Cortisolo nel sangue"
              }
            ]
          },
          "category":[
            {
              "coding":[
                {
                  "system":"https://fhir.siss.regione.lombardia.it/Valueset/CategoriaOrdine",
                  "code":"1",
                  "display":"Richiesta"
                }
              ]
            }
          ],
          "orderDetail":{
            "coding":[
              {
                "system":"https://fhir.siss.regione.lombardia.it/sid/identificativoInternoUnitaErogante",
                "code":"0002"
              },
              {
                "system":"https://fhir.siss.regione.lombardia.it/sid/codiceMinisterialeReparto",
                "code":"0801"
              },
              {
                "system":"https://fhir.siss.regione.lombardia.it/sid/codiceMinisterialePresidio",
                "code":"03091300"
              },
              {
                "system":"https://fhir.siss.regione.lombardia.it/sid/identificativoInternoSalaErogatrice",
                "code":"LAB"
              }
            ]
          },
          "quantityQuantity":{
            "value":1
          },
          "subject":{
            "reference":"Patient/6686199c-f386-4345-a178-5e98023575f7",
            "display":"Centoottantatre Prodsiss"
          },
          "encounter":{
            "reference":"Encounter/ace5cde7-33f3-4d36-9d6b-9a837ed7fdcb",
            "display":"Informazioni Richiesta Lab"
          },
          "authoredOn":"2022-11-16T14:59:37Z",
          "performer":[
            {
              "reference":"Organization/37d47b20-fbe0-11ed-99f7-02001700b287"
            }
          ],
          "reasonCode":[
            {
              "coding":[
                {
                  "system":"http://hl7.org/fhir/sid/icd-9",
                  "code":"V173",
                  "display":"Fam hx-ischem heart dis"
                }
              ]
            }
          ]
        }
      },
      {
        "fullUrl":"Patient/6686199c-f386-4345-a178-5e98023575f7",
        "resource":{
          "resourceType":"Patient",
          "id":"6686199c-f386-4345-a178-5e98023575f7",
          "meta":{
            "profile":[
              "https://fhir.siss.regione.lombardia.it/StructureDefinition/ReteLabPatientCittadino"
            ]
          },
          "identifier":[
            {
              "system":"https://fhir.siss.regione.lombardia.it/CodeSystem/CodiceFiscale",
              "type":{
                "coding":[
                  {
                    "system":"https://fhir.siss.regione.lombardia.it/CodeSystem/CodiceFiscale",
                    "code":"NN",
                    "display":"Codice fiscale"
                  }
                ]
              },
              "value":"PRDCTT00L02L219G"
            },
            {
              "system":"https://fhir.siss.regione.lombardia.it/CodeSystem/TesseraSanitaria",
              "type":{
                "coding":[
                  {
                    "system":"https://fhir.siss.regione.lombardia.it/CodeSystem/TesseraSanitaria",
                    "code":"SS",
                    "display":"Tessera Sanitaria"
                  }
                ]
              },
              "value":"999FJ645"
            }
          ],
          "name":[
            {
              "family":"Prodsiss",
              "given":[
                "Centoottantatre"
              ]
            }
          ],
          "gender":"male",
          "birthDate":"2000-07-02",
          "address":[
            {
              "use":"home",
              "city":"TORINO",
              "state":"TO",
              "postalCode":"20158",
              "extension":[
                {
                  "url":"https://fhir.siss.regione.lombardia.it/StructureDefinition/ReteLabAddressCodiceISTAT",
                  "valueString":"001272"
                }
              ]
            },
            {
              "use":"home",
              "text":"V. C/O LOMBARDIA INFORMATICA VIA MINZONI, 24",
              "line":[
                "V. C/O LOMBARDIA INFORMATICA VIA MINZONI",
                {
                  "extension":[
                    {
                      "url":"https://fhir.siss.regione.lombardia.it/StructureDefinition/ReteLabAddressLineNumeroCivico",
                      "valueString":"24"
                    }
                  ]
                }
              ],
              "city":"MILANO",
              "state":"MI",
              "postalCode":"20158",
              "extension":[
                {
                  "url":"https://fhir.siss.regione.lombardia.it/StructureDefinition/ReteLabAddressCodiceISTAT",
                  "valueString":"015146"
                }
              ]
            },
            {
              "use":"home",
              "text":"V. C/O LOMBARDIA INFORMATICA VIA MINZONI, 24",
              "line":[
                "V. C/O LOMBARDIA INFORMATICA VIA MINZONI",
                {
                  "extension":[
                    {
                      "url":"https://fhir.siss.regione.lombardia.it/StructureDefinition/ReteLabAddressLineNumeroCivico",
                      "valueString":"24"
                    }
                  ]
                }
              ],
              "city":"MILANO",
              "state":"MI",
              "postalCode":"20158",
              "extension":[
                {
                  "url":"https://fhir.siss.regione.lombardia.it/StructureDefinition/ReteLabAddressCodiceISTAT",
                  "valueString":"015146"
                }
              ]
            }
          ]
        }
      },
      {
        "fullUrl":"Organization/7195779b-9c43-4074-a2d4-7e34e18b1ae4",
        "resource":{
          "resourceType":"Organization",
          "id":"7195779b-9c43-4074-a2d4-7e34e18b1ae4",
          "meta":{
            "profile":[
              "https://fhir.siss.regione.lombardia.it/StructureDefinition/ReteLabOrganizationL1"
            ]
          },
          "identifier":[
            {
              "system":"https://fhir.siss.regione.lombardia.it/sid/codiceIdentificativoEnte",
              "value":"462801"
            }
          ],
          "name":"Denominazione dell'ente L1"
        }
      },
      {
        "fullUrl":"Organization/37d47b20-fbe0-11ed-99f7-02001700b287",
        "resource":{
          "resourceType":"Organization",
          "id":"37d47b20-fbe0-11ed-99f7-02001700b287",
          "meta":{
            "profile":[
              "https://fhir.siss.regione.lombardia.it/StructureDefinition/ReteLabOrganizationL2"
            ]
          },
          "identifier":[
            {
              "system":"https://fhir.siss.regione.lombardia.it/sid/codiceMinisterialePresidio",
              "value":"5678"
            }
          ],
          "partOf":{
            "reference":"Organization/7195779b-9c43-4074-a2d4-7e34e18b1ae4"
          },
          "name":"Descrizione del presidio L2"
        }
      },
      {
        "fullUrl":"Organization/34568719c-9c43-4074-a2d4-7e34e18b1ae4",
        "resource":{
          "resourceType":"Organization",
          "id":"34568719c-9c43-4074-a2d4-7e34e18b1ae4",
          "meta":{
            "profile":[
              "https://fhir.siss.regione.lombardia.it/StructureDefinition/ReteLabOrganizationL1"
            ]
          },
          "identifier":[
            {
              "system":"https://fhir.siss.regione.lombardia.it/sid/codiceIdentificativoEnte",
              "value":"309672"
            }
          ],
          "name":"Denominazione dell'ente L1"
        }
      },
      {
        "fullUrl":"Organization/30d4p103-fbe0-11ed-99f7-02001700b287",
        "resource":{
          "resourceType":"Organization",
          "id":"30d4p103-fbe0-11ed-99f7-02001700b287",
          "meta":{
            "profile":[
              "https://fhir.siss.regione.lombardia.it/StructureDefinition/ReteLabOrganizationL2"
            ]
          },
          "identifier":[
            {
              "system":"https://fhir.siss.regione.lombardia.it/sid/codiceMinisterialePresidio",
              "value":"1234"
            }
          ],
          "partOf":{
            "reference":"Organization/34568719c-9c43-4074-a2d4-7e34e18b1ae4"
          },
          "name":"Descrizione del presidio L2"
        }
      }
    ]
  }