{
    "resourceType": "Bundle",
    "id": "39609d53-41be-49ca-8eab-344c691e4a2b",
    "type": "message",
    "timestamp": "2024-04-05T10:24:11.181Z",
    "meta": {
        "versionId": "1",
        "profile": [
            "https://fhir.siss.regione.lombardia.it/StructureDefinition/ReteLabBundleRispostaNuovaRichiesta"
        ]
    },
    "entry": [
        {
            "fullUrl": "MessageHeader/db6cd795-2395-45a2-a681-c1d90589f6dc",
            "resource": {
                "resourceType": "MessageHeader",
                "id": "db6cd795-2395-45a2-a681-c1d90589f6dc",
                "meta": {
                    "profile": [
                        "https://fhir.siss.regione.lombardia.it/StructureDefinition/ReteLabMessageHeader"
                    ],
                    "versionId": "1",
                    "lastUpdated": "2024-04-05T10:23:16.866Z"
                },
                "eventCoding": {
                    "system": "https://fhir.siss.regione.lombardia.it/ValueSet/CodiceEventoMessageHeader",
                    "code": "ORL^O22",
                    "display": "ORL^O22^ORL_O22"
                },
                "destination": [
                    {
                        "name": "OMR",
                        "software": "Reti di laboratori",
                        "endpoint": "localhost:52773/fhir/retilab/Omr"
                    }
                ],
                "source": {
                    "name": "3",
                    "software": "Postman Galaxy Hospital - Orbit Lab",
                    "endpoint": "pietrodileo.pythonanywhere.com"
                },
                "response": {
                    "identifier": "14dc647a-f334-11ee-8320-020017048457",
                    "code": "ok"
                },
                "focus": [
                    {
                        "reference": "Task/f12d1c0c-8a29-4a79-ba2a-9f9d06596f76"
                    }
                ]
            }
        },
        {
            "fullUrl": "Task/f12d1c0c-8a29-4a79-ba2a-9f9d06596f76",
            "resource": {
                "resourceType": "Task",
                "id": "f12d1c0c-8a29-4a79-ba2a-9f9d06596f76",
                "meta": {
                    "profile": [
                        "https://fhir.siss.regione.lombardia.it/StructureDefinition/ReteLabTaskStatoRichiesta"
                    ],
                    "versionId": "1"
                },
                "focus": {
                    "reference": "ServiceRequest/e2bdf00d-2235-4465-8b9c-944e337efd47"
                },
                "status": "accepted",
                "intent": "order"
            }
        },
        {
            "fullUrl": "Encounter/ace5cde7-33f3-4d36-9d6b-9a837ed7fdcb",
            "resource": {
                "resourceType": "Encounter",
                "id": "ace5cde7-33f3-4d36-9d6b-9a837ed7fdcb",
                "meta": {
                    "profile": [
                        "https://fhir.siss.regione.lombardia.it/StructureDefinition/ReteLabEncounterInformazioniRichiestaLab"
                    ],
                    "versionId": "1"
                },
                "identifier": [
                    {
                        "system": "https://fhir.siss.regione.lombardia.it/CodeSystem/numeroRicovero",
                        "type": {
                            "coding": [
                                {
                                    "system": "https://fhir.siss.regione.lombardia.it/CodeSystem/numeroRicovero",
                                    "code": "NR"
                                }
                            ]
                        },
                        "value": "202300001",
                        "assigner": {
                            "reference": "Organization/37d47b20-fbe0-11ed-99f7-02001700b287",
                            "display": "Laboratorio richiedente"
                        }
                    }
                ],
                "status": "planned",
                "class": {
                    "system": "http://terminology.hl7.org/CodeSystem/v3-ActCode",
                    "code": "IMP",
                    "display": "Impatient"
                },
                "subject": {
                    "reference": "Patient/6686199c-f386-4345-a178-5e98023575f7"
                },
                "basedOn": [
                    {
                        "reference": "ServiceRequest/e2bdf00d-2235-4465-8b9c-944e337efd47"
                    }
                ],
                "diagnosis": [
                    {
                        "condition": {
                            "reference": "Condition/25bc970c-d45c-11ed-afa1-0242ac120002"
                        },
                        "rank": 1
                    }
                ],
                "extension": [
                    {
                        "url": "https://fhir.siss.regione.lombardia.it/StructureDefinition/ReteLabEncounterNotaDiAccompagnamento",
                        "valueReference": {
                            "reference": "Binary/a8d5502e-02df-4a15-a433-aa6ce2f9fa50"
                        }
                    },
                    {
                        "url": "https://fhir.siss.regione.lombardia.it/StructureDefinition/ReteLabEncounterServiceRequester",
                        "valueReference": {
                            "reference": "Organization/72c10akc-9d02-34df-cina-01945719a018"
                        }
                    },
                    {
                        "url": "https://fhir.siss.regione.lombardia.it/StructureDefinition/ReteLabEncounterAnamnesi",
                        "valueString": "Il paziente ha riferito di avere avuto episodi di vertigini negli ultimi mesi"
                    },
                    {
                        "url": "https://fhir.siss.regione.lombardia.it/StructureDefinition/ReteLabEncounterDettaglioOperatore",
                        "valueString": "Si è provveduto alla raccolta dei campioni biologoci del paziente"
                    },
                    {
                        "url": "https://fhir.siss.regione.lombardia.it/StructureDefinition/ReteLabEncounterNotePaziente",
                        "valueString": "Sono stati prelevati campioni di sangue dal paziente per l'esecuzione degli esami di laboratorio prescritti."
                    }
                ]
            }
        },
        {
            "fullUrl": "Binary/a8d5502e-02df-4a15-a433-aa6ce2f9fa50",
            "resource": {
                "resourceType": "Binary",
                "id": "a8d5502e-02df-4a15-a433-aa6ce2f9fa50",
                "meta": {
                    "versionId": "1",
                    "profile": [
                        "https://fhir.siss.regione.lombardia.it/StructureDefinition/ReteLabBinaryDocumentoPDFEncodedBase64"
                    ]
                },
                "data": "MIAGCSqGSp1mcdl5PCRUrdikw4dk2oAAAAAAAA=",
                "contentType": "application/pdf"
            }
        },
        {
            "fullUrl": "Condition/25bc970c-d45c-11ed-afa1-0242ac120002",
            "resource": {
                "resourceType": "Condition",
                "id": "25bc970c-d45c-11ed-afa1-0242ac120002",
                "meta": {
                    "profile": [
                        "https://fhir.siss.regione.lombardia.it/StructureDefinition/ReteLabConditionDiagnosi"
                    ],
                    "versionId": "1"
                },
                "identifier": [
                    {
                        "system": "https://fhir.siss.regione.lombardia.it/CodeSystem/IdentificativoDiagnosi",
                        "value": "012345"
                    }
                ],
                "category": [
                    {
                        "coding": [
                            {
                                "system": "https://fhir.siss.regione.lombardia.it/CodeSystem/TipoDiagnosiPatologia",
                                "code": "A",
                                "display": "Diagnosi di accettazione"
                            },
                            {
                                "system": "https://fhir.siss.regione.lombardia.it/CodeSystem/TipoDiagnosiPatologia",
                                "code": "P",
                                "display": "Patologia principale"
                            }
                        ]
                    }
                ],
                "severity": {
                    "coding": [
                        {
                            "system": "http://snomed.info/sct",
                            "code": "24484000",
                            "display": "Severe"
                        }
                    ]
                },
                "code": {
                    "coding": [
                        {
                            "system": "https://fhir.siss.regione.lombardia.it/CodeSystem/CodiceDiagnosi",
                            "code": "39065001",
                            "display": "Ustione dell'orecchio"
                        }
                    ]
                },
                "subject": {
                    "reference": "Patient/6686199c-f386-4345-a178-5e98023575f7",
                    "display": "Mario Rossi"
                },
                "recordedDate": "2013-03-11T23:45:32Z",
                "asserter": {
                    "reference": "PractitionerRole/65a0765e-6f57-11ee-adbe-02001700b287",
                    "display": "Stefano Neva"
                },
                "note": [
                    {
                        "text": "Note aggiuntive sulla diagnosi"
                    }
                ],
                "extension": [
                    {
                        "url": "https://fhir.siss.regione.lombardia.it/StructureDefinition/ReteLabConditionConfidenzialitaDiagnosi",
                        "valueString": "Diagnosi confidenziale"
                    }
                ]
            }
        },
        {
            "fullUrl": "ServiceRequest/e2bdf00d-2235-4465-8b9c-944e337efd47",
            "resource": {
                "resourceType": "ServiceRequest",
                "id": "e2bdf00d-2235-4465-8b9c-944e337efd47",
                "meta": {
                    "profile": [
                        "https://fhir.siss.regione.lombardia.it/StructureDefinition/ReteLabServiceRequestRichiestaEsamiLab"
                    ],
                    "versionId": "1"
                },
                "identifier": [
                    {
                        "system": "https://fhir.siss.regione.lombardia.it/sid/PlacerOrderNumber",
                        "value": "1-0035"
                    },
                    {
                        "system": "https://fhir.siss.regione.lombardia.it/sid/OMROrderNumber",
                        "value": "14dacd72-f334-11ee-8e15-020017048457"
                    },
                    {
                        "system": "https://fhir.siss.regione.lombardia.it/sid/FillerOrderNumber",
                        "value": "a680e11f-033e-4f65-9d0e-258d1ebb73dc"
                    }
                ],
                "requisition": {
                    "system": "https://fhir.siss.regione.lombardia.it/sid/PlacerRequisitionNumber",
                    "value": "0000-0018-"
                },
                "status": "active",
                "category": [
                    {
                        "coding": [
                            {
                                "system": "https://fhir.siss.regione.lombardia.it/Valueset/CategoriaOrdine",
                                "code": "1",
                                "display": "Richiesta"
                            }
                        ]
                    }
                ],
                "intent": "order",
                "priority": "urgent",
                "code": {
                    "coding": [
                        {
                            "system": "https://fhir.siss.regione.lombardia.it/ValueSet/CodificaLOINC",
                            "code": "90325",
                            "display": "Magnesio totale nelle urine"
                        }
                    ]
                },
                "orderDetail": [
                    {
                        "coding": [
                            {
                                "code": "0002",
                                "system": "https://fhir.siss.regione.lombardia.it/sid/identificativoInternoUnitaErogante"
                            }
                        ]
                    },
                    {
                        "coding": [
                            {
                                "code": "0801",
                                "system": "https://fhir.siss.regione.lombardia.it/sid/codiceMinisterialeReparto"
                            }
                        ]
                    },
                    {
                        "coding": [
                            {
                                "code": "03091300",
                                "system": "https://fhir.siss.regione.lombardia.it/sid/codiceMinisterialePresidio"
                            }
                        ]
                    },
                    {
                        "coding": [
                            {
                                "code": "LAB",
                                "system": "https://fhir.siss.regione.lombardia.it/sid/identificativoInternoSalaErogatrice"
                            }
                        ]
                    }
                ],
                "quantityQuantity": {
                    "value": 1
                },
                "subject": {
                    "reference": "Patient/6686199c-f386-4345-a178-5e98023575f7",
                    "display": "Centoottantatre Prodsiss"
                },
                "encounter": {
                    "reference": "Encounter/ace5cde7-33f3-4d36-9d6b-9a837ed7fdcb",
                    "display": "Informazioni Richiesta Lab"
                },
                "authoredOn": "2022-11-16T14:59:37Z",
                "requester": {
                    "reference": "PractitionerRole/65a0765e-6f57-11ee-adbe-02001700b287",
                    "display": "Medico"
                },
                "supportingInfo": [
                    {
                        "reference": "Observation/d52a9b60-d45e-11ed-afa1-0242ac120002",
                        "display": "Info Cliniche"
                    }
                ],
                "specimen": [
                    {
                        "reference": "Specimen/4bbecc4b-60b4-4b4a-9b99-ce39b1f69876",
                        "display": "Campione da analizzare"
                    }
                ],
                "performer": [
                    {
                        "reference": "Organization/91c1bd3d-707a-4bfc-add3-1230dac7d6c3"
                    }
                ],
                "extension": [
                    {
                        "url": "https://fhir.siss.regione.lombardia.it/StructureDefinition/ReteLabServiceRequestTipoPrestazione",
                        "valueString": "LAB-TipoPrestazione"
                    }
                ]
            }
        },
        {
            "fullUrl": "Observation/d52a9b60-d45e-11ed-afa1-0242ac120002",
            "resource": {
                "resourceType": "Observation",
                "id": "d52a9b60-d45e-11ed-afa1-0242ac120002",
                "meta": {
                    "profile": [
                        "https://fhir.siss.regione.lombardia.it/StructureDefinition/ReteLabObservationInfoCliniche"
                    ],
                    "versionId": "1"
                },
                "status": "final",
                "code": {
                    "coding": [
                        {
                            "system": "https://fhir.siss.regione.lombardia.it/ValueSet/CodificaLOINC",
                            "code": "15074-8",
                            "display": "Glucose [Moles/volume] in Blood"
                        }
                    ]
                },
                "valueQuantity": {
                    "value": 6.3,
                    "unit": "mmol/l"
                },
                "note": {
                    "text": "note aggiuntive"
                },
                "subject": {
                    "reference": "Patient/6686199c-f386-4345-a178-5e98023575f7"
                }
            }
        },
        {
            "fullUrl": "Specimen/4bbecc4b-60b4-4b4a-9b99-ce39b1f69876",
            "resource": {
                "resourceType": "Specimen",
                "id": "4bbecc4b-60b4-4b4a-9b99-ce39b1f69876",
                "meta": {
                    "profile": [
                        "https://fhir.siss.regione.lombardia.it/StructureDefinition/ReteLabSpecimenCampioneDaAnalizzare"
                    ],
                    "versionId": 1
                },
                "type": {
                    "coding": [
                        {
                            "code": "119297000",
                            "display": "Blood specimen (specimen)",
                            "system": "SNOMED"
                        }
                    ]
                },
                "subject": {
                    "reference": "Patient/6686199c-f386-4345-a178-5e98023575f7"
                },
                "receivedTime": "2022-11-16T14:59:37Z",
                "collection": {
                    "collectedDateTime": "2022-11-16T14:59:37Z",
                    "quantity": {
                        "value": 0
                    },
                    "bodySite": {
                        "coding": [
                            {
                                "system": "https://fhir.siss.regione.lombardia.it/ValueSet/CodificaLOINC",
                                "code": "TBD",
                                "display": "TBD"
                            }
                        ]
                    }
                },
                "identifier": [
                    {
                        "system": "https://fhir.siss.regione.lombardia.it/sid/PlacerOrderNumber",
                        "value": "c698e7f4-30a1-4867-ad74-c2ca2ee6c406"
                    }
                ],
                "note": [
                    {
                        "text": "campione fragile"
                    }
                ],
                "extension": [
                    {
                        "url": "https://fhir.siss.regione.lombardia.it/StructureDefinition/ReteLabSpecimenIstruzioniEtichette",
                        "extension": [
                            {
                                "url": "identificativoNumeroEtichetta",
                                "valueString": "TBD"
                            },
                            {
                                "url": "numeroRigaEtichetta",
                                "valueInteger": "TBD"
                            },
                            {
                                "url": "codiceEtichetta",
                                "valueString": "TBD"
                            },
                            {
                                "url": "categoriaEtichetta",
                                "valueString": "TBD"
                            },
                            {
                                "url": "contenutoTipoRigaEtichetta",
                                "valueCodeableConcept": {
                                    "coding": [
                                        {
                                            "system": "TBD",
                                            "code": "TBD",
                                            "display": "TBD"
                                        }
                                    ]
                                }
                            },
                            {
                                "url": "indicazioniFormattazione",
                                "valueString": "TBD"
                            },
                            {
                                "url": "numeroCopie",
                                "valueInteger": "TBD"
                            },
                            {
                                "url": "ampiezzaBarcode",
                                "valueQuantity": {
                                    "value": 3,
                                    "unit": "ch"
                                }
                            },
                            {
                                "url": "altezzaBarcode",
                                "valueString": "TBD"
                            },
                            {
                                "url": "dimensioneEffettivaBarcode",
                                "valueString": "TBD"
                            },
                            {
                                "url": "tipoBarcode",
                                "valueString": "TBD"
                            },
                            {
                                "url": "fillerPattern",
                                "valueString": "TBD"
                            },
                            {
                                "url": "fillerSide",
                                "valueString": "TBD"
                            },
                            {
                                "url": "bordaturaBarcode",
                                "valueString": "TBD"
                            },
                            {
                                "url": "codiceCampione",
                                "valueString": "TBD"
                            },
                            {
                                "url": "descrizioneEtichetta",
                                "valueString": "TBD"
                            }
                        ]
                    }
                ]
            }
        },
        {
            "fullUrl": "Organization/7195779b-9c43-4074-a2d4-7e34e18b1ae4",
            "resource": {
                "resourceType": "Organization",
                "id": "7195779b-9c43-4074-a2d4-7e34e18b1ae4",
                "meta": {
                    "versionId": "1",
                    "profile": [
                        "https://fhir.siss.regione.lombardia.it/StructureDefinition/ReteLabOrganizationL1"
                    ]
                },
                "identifier": [
                    {
                        "system": "https://fhir.siss.regione.lombardia.it/CodeSystem/CodiceStruttura",
                        "value": "309672"
                    }
                ],
                "name": "Denominazione dell'ente L1"
            }
        },
        {
            "fullUrl": "Organization/37d47b20-fbe0-11ed-99f7-02001700b287",
            "resource": {
                "resourceType": "Organization",
                "id": "37d47b20-fbe0-11ed-99f7-02001700b287",
                "meta": {
                    "versionId": "1",
                    "profile": [
                        "https://fhir.siss.regione.lombardia.it/StructureDefinition/ReteLabOrganizationL2"
                    ]
                },
                "identifier": [
                    {
                        "system": "https://fhir.siss.regione.lombardia.it/sid/codiceMinisterialePresidio",
                        "value": "1234"
                    }
                ],
                "partOf": {
                    "reference": "Organization/7195779b-9c43-4074-a2d4-7e34e18b1ae4"
                },
                "name": "Descrizione del presidio L2"
            }
        },
        {
            "fullUrl": "Organization/65a05dcc-6f57-11ee-adbe-02001700b287",
            "resource": {
                "resourceType": "Organization",
                "id": "65a05dcc-6f57-11ee-adbe-02001700b287",
                "meta": {
                    "versionId": "1",
                    "profile": [
                        "https://fhir.siss.regione.lombardia.it/StructureDefinition/ReteLabOrganizationL3"
                    ]
                },
                "identifier": [
                    {
                        "value": "0801",
                        "system": "https://fhir.siss.regione.lombardia.it/sid/codiceMinisterialeReparto"
                    }
                ],
                "name": "CARDIOLOGIA",
                "partOf": {
                    "reference": "Organization/37d47b20-fbe0-11ed-99f7-02001700b287"
                }
            }
        },
        {
            "fullUrl": "Organization/72c10akc-9d02-34df-cina-01945719a018",
            "resource": {
                "resourceType": "Organization",
                "id": "72c10akc-9d02-34df-cina-01945719a018",
                "meta": {
                    "versionId": "1",
                    "profile": [
                        "https://fhir.siss.regione.lombardia.it/StructureDefinition/ReteLabOrganizationL4"
                    ]
                },
                "identifier": [
                    {
                        "value": "121314",
                        "system": "https://fhir.siss.regione.lombardia.it/sid/codiceMinisterialeAmbulatorio"
                    }
                ],
                "name": "CARDIOLOGIA",
                "partOf": {
                    "reference": "Organization/65a05dcc-6f57-11ee-adbe-02001700b287"
                }
            }
        },
        {
            "fullUrl": "Patient/6686199c-f386-4345-a178-5e98023575f7",
            "resource": {
                "resourceType": "Patient",
                "id": "6686199c-f386-4345-a178-5e98023575f7",
                "meta": {
                    "versionId": "1",
                    "profile": [
                        "https://fhir.siss.regione.lombardia.it/StructureDefinition/ReteLabPatientCittadino"
                    ]
                },
                "extension": [
                    {
                        "url": "http://hl7.org/fhir/StructureDefinition/patient-birthPlace",
                        "valueAddress": {
                            "city": "FRANCIA",
                            "extension": [
                                {
                                    "url": "https://fhir.siss.regione.lombardia.it/StructureDefinition/ReteLabAddressCodiceISTAT",
                                    "valueString": "999215"
                                }
                            ]
                        }
                    }
                ],
                "identifier": [
                    {
                        "value": "CODTEAM",
                        "system": "https://fhir.siss.regione.lombardia.it/Valueset/TesseraTEAM",
                        "type": {
                            "coding": [
                                {
                                    "display": "Tessera TEAM",
                                    "code": "NPI",
                                    "system": "https://fhir.siss.regione.lombardia.it/Valueset/TipologiaIdentificativoPaziente"
                                }
                            ]
                        },
                        "period": {
                            "end": "2021-05-21T00:00:00+01:00"
                        },
                        "assigner": {
                            "extension": [
                                {
                                    "url": "https://fhir.siss.regione.lombardia.it/StructureDefinition/ReteLabIdentifierAssignerSiglaNazione",
                                    "valueString": "FR"
                                }
                            ],
                            "identifier": {
                                "value": "COD"
                            },
                            "display": "DESC"
                        }
                    }
                ],
                "name": [
                    {
                        "family": "PRODSISS",
                        "given": [
                            "CENTOOTTANTATRE"
                        ]
                    }
                ],
                "address": [
                    {
                        "text": "V. C/O LOMBARDIA INFORMATICA VIA MINZONI 24",
                        "city": "MILANO",
                        "state": "MI",
                        "postalCode": "20158",
                        "use": "home",
                        "line": [
                            {
                                "extension": [
                                    {
                                        "url": "https://fhir.siss.regione.lombardia.it/StructureDefinition/ReteLabLineVia",
                                        "valueString": "V. C/O LOMBARDIA INFORMATICA VIA MINZONI 24"
                                    }
                                ]
                            }
                        ],
                        "extension": [
                            {
                                "url": "https://fhir.siss.regione.lombardia.it/StructureDefinition/ReteLabAddressCodiceISTAT",
                                "valueString": "015146"
                            }
                        ]
                    },
                    {
                        "text": "V. C/O LOMBARDIA INFORMATICA VIA, MINZONI24",
                        "city": "MILANO",
                        "state": "MI",
                        "postalCode": "20158",
                        "use": "temp",
                        "line": [
                            {
                                "extension": [
                                    {
                                        "url": "https://fhir.siss.regione.lombardia.it/StructureDefinition/ReteLabLineNumeroCivico",
                                        "valueString": "MINZONI24"
                                    },
                                    {
                                        "url": "https://fhir.siss.regione.lombardia.it/StructureDefinition/ReteLabLineVia",
                                        "valueString": "V. C/O LOMBARDIA INFORMATICA VIA"
                                    }
                                ]
                            }
                        ],
                        "extension": [
                            {
                                "url": "https://fhir.siss.regione.lombardia.it/StructureDefinition/ReteLabAddressCodiceISTAT",
                                "valueString": "015146"
                            }
                        ]
                    },
                    {
                        "text": "V. C/O LOMBARDIA INFORMATICA VIA MINZONI 24",
                        "city": "MILANO",
                        "state": "MI",
                        "postalCode": "20158",
                        "use": "home",
                        "line": [
                            {
                                "extension": [
                                    {
                                        "url": "https://fhir.siss.regione.lombardia.it/StructureDefinition/ReteLabLineVia",
                                        "valueString": "V. C/O LOMBARDIA INFORMATICA VIA MINZONI 24"
                                    }
                                ]
                            }
                        ],
                        "extension": [
                            {
                                "url": "https://fhir.siss.regione.lombardia.it/StructureDefinition/ReteLabAddressCodiceISTAT",
                                "valueString": "015146"
                            }
                        ]
                    },
                    {
                        "text": "V. C/O LOMBARDIA INFORMATICA VIA, MINZONI24",
                        "city": "MILANO",
                        "state": "MI",
                        "postalCode": "20158",
                        "use": "home",
                        "line": [
                            {
                                "extension": [
                                    {
                                        "url": "https://fhir.siss.regione.lombardia.it/StructureDefinition/ReteLabLineNumeroCivico",
                                        "valueString": "MINZONI24"
                                    },
                                    {
                                        "url": "https://fhir.siss.regione.lombardia.it/StructureDefinition/ReteLabLineVia",
                                        "valueString": "V. C/O LOMBARDIA INFORMATICA VIA"
                                    }
                                ]
                            }
                        ],
                        "extension": [
                            {
                                "url": "https://fhir.siss.regione.lombardia.it/StructureDefinition/ReteLabAddressCodiceISTAT",
                                "valueString": "015146"
                            }
                        ]
                    }
                ],
                "birthDate": "2000-07-02",
                "gender": "male",
                "generalPractitioner": {
                    "reference": "PractitionerRole/65a0765e-6f57-11ee-adbe-02001700b287"
                },
                "link": [
                    {
                        "other": {
                            "reference": "RelatedPerson/1928379c-f234-2874-a178-5e98109982f7"
                        },
                        "type": "refer"
                    }
                ]
            }
        },
        {
            "fullUrl": "RelatedPerson/1928379c-f234-2874-a178-5e98109982f7",
            "resource": {
                "resourceType": "RelatedPerson",
                "id": "1928379c-f234-2874-a178-5e98109982f7",
                "meta": {
                    "versionId": "1",
                    "profile": [
                        "https://fhir.siss.regione.lombardia.it/StructureDefinition/ReteLabRelatedPerson"
                    ]
                },
                "name": [
                    {
                        "family": "Rossi",
                        "given": [
                            "Marcella"
                        ]
                    }
                ],
                "identifier": [
                    {
                        "value": "RSSMRC66P09N656M",
                        "system": "https://fhir.siss.regione.lombardia.it/Valueset/CodiceFiscale",
                        "type": {
                            "coding": [
                                {
                                    "display": "Codice fiscale",
                                    "code": "NN",
                                    "system": "https://fhir.siss.regione.lombardia.it/Valueset/TipologiaIdentificativoPaziente"
                                }
                            ]
                        }
                    }
                ],
                "patient": {
                    "reference": "Patient/6686199c-f386-4345-a178-5e98023575f7"
                }
            }
        },
        {
            "fullUrl": "PractitionerRole/65a0765e-6f57-11ee-adbe-02001700b287",
            "resource": {
                "resourceType": "PractitionerRole",
                "id": "65a0765e-6f57-11ee-adbe-02001700b287",
                "meta": {
                    "versionId": "1",
                    "profile": [
                        "https://fhir.siss.regione.lombardia.it/StructureDefinition/ReteLabPractitionerRoleMedico"
                    ]
                },
                "code": [
                    {
                        "coding": [
                            {
                                "system": "https://fhir.siss.regione.lombardia.it/ValueSet/QualificaMedico",
                                "code": "2",
                                "display": "Specialista"
                            }
                        ]
                    }
                ],
                "practitioner": {
                    "reference": "Practitioner/660cecf8-d45c-11ed-afa1-0242ac120002"
                }
            }
        },
        {
            "fullUrl": "Practitioner/660cecf8-d45c-11ed-afa1-0242ac120002",
            "resource": {
                "resourceType": "Practitioner",
                "id": "660cecf8-d45c-11ed-afa1-0242ac120002",
                "meta": {
                    "profile": [
                        "https://fhir.siss.regione.lombardia.it/StructureDefinition/ReteLabPractitionerMedico"
                    ],
                    "versionId": "1"
                },
                "identifier": [
                    {
                        "system": "https://fhir.siss.regione.lombardia.it/CodeSystem/CodiceFiscale",
                        "type": {
                            "coding": [
                                {
                                    "system": "https://fhir.siss.regione.lombardia.it/CodeSystem/CodiceFiscale",
                                    "code": "NN",
                                    "display": "Codice fiscale"
                                }
                            ]
                        },
                        "value": "NVESFN77E09H264L"
                    }
                ],
                "name": [
                    {
                        "family": "NEVA",
                        "given": [
                            "STEFANO"
                        ]
                    }
                ]
            }
        },
        {
            "fullUrl": "Organization/8faf53f6-9bb8-4520-86a8-4116df6c340f",
            "resource": {
                "resourceType": "Organization",
                "id": "8faf53f6-9bb8-4520-86a8-4116df6c340f",
                "meta": {
                    "profile": [
                        "https://fhir.siss.regione.lombardia.it/StructureDefinition/ReteLabOrganizationL1"
                    ]
                },
                "identifier": [
                    {
                        "system": "https://fhir.siss.regione.lombardia.it/sid/codiceIdentificativoEnte",
                        "value": "462801"
                    }
                ],
                "name": "Denominazione dell'ente L1"
            }
        },
        {
            "fullUrl": "Organization/91c1bd3d-707a-4bfc-add3-1230dac7d6c3",
            "resource": {
                "resourceType": "Organization",
                "id": "91c1bd3d-707a-4bfc-add3-1230dac7d6c3",
                "meta": {
                    "profile": [
                        "https://fhir.siss.regione.lombardia.it/StructureDefinition/ReteLabOrganizationL2"
                    ]
                },
                "identifier": [
                    {
                        "system": "https://fhir.siss.regione.lombardia.it/sid/codiceMinisterialePresidio",
                        "value": "1996"
                    }
                ],
                "partOf": {
                    "reference": "Organization/8faf53f6-9bb8-4520-86a8-4116df6c340f"
                },
                "name": "Denominazione dell'ente L2"
            }
        }
    ]
}