{
    "richiesta": "New Request",
    "resourceType": "Bundle",
    "id": "c3bd7132-f5b9-11ee-ad2c-020017048457",
    "type": "message",
    "meta": {
        "versionId": "1",
        "profile": [
            "https://fhir.siss.regione.lombardia.it/StructureDefinition/ReteLabBundleNuovaRichiesta"
        ]
    },
    "timestamp": "2024-04-08T15:07:47.769Z",
    "entry": [
        {
            "fullUrl": "MessageHeader/c3bd714d-f5b9-11ee-ad2c-020017048457",
            "resource": {
                "resourceType": "MessageHeader",
                "id": "c3bd714d-f5b9-11ee-ad2c-020017048457",
                "meta": {
                    "profile": [
                        "https://fhir.siss.regione.lombardia.it/StructureDefinition/ReteLabMessageHeader"
                    ],
                    "versionId": "1",
                    "lastUpdated": "2022-11-16T15:00:51+01:00"
                },
                "eventCoding": {
                    "system": "https://fhir.siss.regione.lombardia.it/ValueSet/CodiceEventoMessageHeader",
                    "code": "OML^O21",
                    "display": "OML^O21^OML_O21"
                },
                "destination": [
                    {
                        "name": "3",
                        "endpoint": "https://pietrodileo.pythonanywhere.com",
                        "software": "Postman Galaxy Hospital - Orbit Lab"
                    }
                ],
                "source": {
                    "name": "OMR",
                    "software": "Order Manager Regionale",
                    "endpoint": "localhost:52773/fhir/retilab/Omr"
                },
                "focus": [
                    {
                        "reference": "Encounter/ace5cde7-33f3-4d36-9d6b-9a837ed7fdcb"
                    }
                ]
            }
        },
        {
            "fullUrl": "Encounter/ace5cde7-33f3-4d36-9d6b-9a837ed7fdcb",
            "resource": {
                "resourceType": "Encounter",
                "id": "ace5cde7-33f3-4d36-9d6b-9a837ed7fdcb",
                "meta": {
                    "profile": [
                        "https://fhir.siss.regione.lombardia.it/StructureDefinition/ReteLabEncounterInformazioniRichiestaLab"
                    ],
                    "versionId": "1"
                },
                "identifier": [
                    {
                        "system": "https://fhir.siss.regione.lombardia.it/CodeSystem/numeroRicovero",
                        "type": {
                            "coding": [
                                {
                                    "system": "https://fhir.siss.regione.lombardia.it/CodeSystem/numeroRicovero",
                                    "code": "NR"
                                }
                            ]
                        },
                        "value": "202300001",
                        "assigner": {
                            "reference": "Organization/37d47b20-fbe0-11ed-99f7-02001700b287",
                            "display": "Laboratorio richiedente"
                        }
                    }
                ],
                "status": "planned",
                "class": {
                    "system": "http://terminology.hl7.org/CodeSystem/v3-ActCode",
                    "code": "IMP",
                    "display": "Impatient"
                },
                "subject": {
                    "reference": "Patient/6686199c-f386-4345-a178-5e98023575f7"
                },
                "basedOn": [
                    {
                        "reference": "ServiceRequest/e2bdf00d-2235-4465-8b9c-944e337efd47"
                    }
                ],
                "extension": [
                    {
                        "url": "https://fhir.siss.regione.lombardia.it/StructureDefinition/ReteLabEncounterServiceRequester",
                        "valueReference": {
                            "reference": "Organization/72c10akc-9d02-34df-cina-01945719a018"
                        }
                    },
                    {
                        "url": "https://fhir.siss.regione.lombardia.it/StructureDefinition/ReteLabEncounterAnamnesi",
                        "valueString": "Il paziente ha riferito di avere avuto episodi di vertigini negli ultimi mesi"
                    },
                    {
                        "url": "https://fhir.siss.regione.lombardia.it/StructureDefinition/ReteLabEncounterDettaglioOperatore",
                        "valueString": "Si è provveduto alla raccolta dei campioni biologoci del paziente"
                    },
                    {
                        "url": "https://fhir.siss.regione.lombardia.it/StructureDefinition/ReteLabEncounterNotePaziente",
                        "valueString": "Sono stati prelevati campioni di sangue dal paziente per l'esecuzione degli esami di laboratorio prescritti."
                    }
                ]
            }
        },
        {
            "fullUrl": "ServiceRequest/e2bdf00d-2235-4465-8b9c-944e337efd47",
            "resource": {
                "resourceType": "ServiceRequest",
                "id": "e2bdf00d-2235-4465-8b9c-944e337efd47",
                "meta": {
                    "profile": [
                        "https://fhir.siss.regione.lombardia.it/StructureDefinition/ReteLabServiceRequestRichiestaEsamiLab"
                    ],
                    "versionId": "1"
                },
                "identifier": [
                    {
                        "system": "https://fhir.siss.regione.lombardia.it/sid/PlacerOrderNumber",
                        "value": "1-0071"
                    },
                    {
                        "system": "https://fhir.siss.regione.lombardia.it/sid/OMROrderNumber",
                        "value": "c3b97d02-f5b9-11ee-87ea-020017048457"
                    }
                ],
                "requisition": {
                    "system": "https://fhir.siss.regione.lombardia.it/sid/PlacerRequisitionNumber",
                    "value": "0000-0036-"
                },
                "status": "active",
                "category": [
                    {
                        "coding": [
                            {
                                "system": "https://fhir.siss.regione.lombardia.it/Valueset/CategoriaOrdine",
                                "code": "1",
                                "display": "Richiesta"
                            }
                        ]
                    }
                ],
                "intent": "order",
                "priority": "urgent",
                "code": {
                    "coding": [
                        {
                            "system": "https://fhir.siss.regione.lombardia.it/ValueSet/CodificaLOINC",
                            "code": "90291",
                            "display": "Insulina a digiuno"
                        }
                    ]
                },
                "orderDetail": [
                    {
                        "coding": [
                            {
                                "code": "0002",
                                "system": "https://fhir.siss.regione.lombardia.it/sid/identificativoInternoUnitaErogante"
                            }
                        ]
                    },
                    {
                        "coding": [
                            {
                                "code": "0801",
                                "system": "https://fhir.siss.regione.lombardia.it/sid/codiceMinisterialeReparto"
                            }
                        ]
                    },
                    {
                        "coding": [
                            {
                                "code": "03091300",
                                "system": "https://fhir.siss.regione.lombardia.it/sid/codiceMinisterialePresidio"
                            }
                        ]
                    },
                    {
                        "coding": [
                            {
                                "code": "LAB",
                                "system": "https://fhir.siss.regione.lombardia.it/sid/identificativoInternoSalaErogatrice"
                            }
                        ]
                    }
                ],
                "quantityQuantity": {
                    "value": 1
                },
                "subject": {
                    "reference": "Patient/6686199c-f386-4345-a178-5e98023575f7",
                    "display": "Centoottantatre Prodsiss"
                },
                "encounter": {
                    "reference": "Encounter/ace5cde7-33f3-4d36-9d6b-9a837ed7fdcb",
                    "display": "Informazioni Richiesta Lab"
                },
                "authoredOn": "2022-11-16T14:59:37Z"
            }
        },
        {
            "fullUrl": "Organization/7195779b-9c43-4074-a2d4-7e34e18b1ae4",
            "resource": {
                "resourceType": "Organization",
                "id": "7195779b-9c43-4074-a2d4-7e34e18b1ae4",
                "meta": {
                    "versionId": "1",
                    "profile": [
                        "https://fhir.siss.regione.lombardia.it/StructureDefinition/ReteLabOrganizationL1"
                    ]
                },
                "identifier": [
                    {
                        "system": "https://fhir.siss.regione.lombardia.it/CodeSystem/codiceIdentificativoEnte",
                        "value": "309672"
                    }
                ],
                "name": "Denominazione dell'ente L1"
            }
        },
        {
            "fullUrl": "Organization/37d47b20-fbe0-11ed-99f7-02001700b287",
            "resource": {
                "resourceType": "Organization",
                "id": "37d47b20-fbe0-11ed-99f7-02001700b287",
                "meta": {
                    "versionId": "1",
                    "profile": [
                        "https://fhir.siss.regione.lombardia.it/StructureDefinition/ReteLabOrganizationL2"
                    ]
                },
                "identifier": [
                    {
                        "system": "https://fhir.siss.regione.lombardia.it/sid/codiceMinisterialePresidio",
                        "value": "1234"
                    }
                ],
                "partOf": {
                    "reference": "Organization/7195779b-9c43-4074-a2d4-7e34e18b1ae4"
                },
                "name": "Descrizione del presidio L2"
            }
        },
        {
            "fullUrl": "Organization/65a05dcc-6f57-11ee-adbe-02001700b287",
            "resource": {
                "resourceType": "Organization",
                "id": "65a05dcc-6f57-11ee-adbe-02001700b287",
                "meta": {
                    "versionId": "1",
                    "profile": [
                        "https://fhir.siss.regione.lombardia.it/StructureDefinition/ReteLabOrganizationL3"
                    ]
                },
                "identifier": [
                    {
                        "value": "0801",
                        "system": "https://fhir.siss.regione.lombardia.it/sid/codiceMinisterialeReparto"
                    }
                ],
                "name": "CARDIOLOGIA",
                "partOf": {
                    "reference": "Organization/37d47b20-fbe0-11ed-99f7-02001700b287"
                }
            }
        },
        {
            "fullUrl": "Organization/72c10akc-9d02-34df-cina-01945719a018",
            "resource": {
                "resourceType": "Organization",
                "id": "72c10akc-9d02-34df-cina-01945719a018",
                "meta": {
                    "versionId": "1",
                    "profile": [
                        "https://fhir.siss.regione.lombardia.it/StructureDefinition/ReteLabOrganizationL4"
                    ]
                },
                "identifier": [
                    {
                        "value": "121314",
                        "system": "https://fhir.siss.regione.lombardia.it/sid/codiceMinisterialeAmbulatorio"
                    }
                ],
                "name": "CARDIOLOGIA",
                "partOf": {
                    "reference": "Organization/65a05dcc-6f57-11ee-adbe-02001700b287"
                }
            }
        },
        {
            "fullUrl": "Patient/6686199c-f386-4345-a178-5e98023575f7",
            "resource": {
                "resourceType": "Patient",
                "id": "6686199c-f386-4345-a178-5e98023575f7",
                "meta": {
                    "versionId": "1",
                    "profile": [
                        "https://fhir.siss.regione.lombardia.it/StructureDefinition/ReteLabPatientCittadino"
                    ]
                },
                "extension": [
                    {
                        "url": "http://hl7.org/fhir/StructureDefinition/patient-birthPlace",
                        "valueAddress": {
                            "city": "FRANCIA",
                            "extension": [
                                {
                                    "url": "https://fhir.siss.regione.lombardia.it/StructureDefinition/ReteLabAddressCodiceISTAT",
                                    "valueString": "999215"
                                }
                            ]
                        }
                    }
                ],
                "identifier": [
                    {
                        "value": "CODTEAM",
                        "system": "https://fhir.siss.regione.lombardia.it/Valueset/TesseraTEAM",
                        "type": {
                            "coding": [
                                {
                                    "display": "Tessera TEAM",
                                    "code": "NPI",
                                    "system": "https://fhir.siss.regione.lombardia.it/Valueset/TipologiaIdentificativoPaziente"
                                }
                            ]
                        },
                        "period": {
                            "end": "2021-05-21T00:00:00+01:00"
                        },
                        "assigner": {
                            "extension": [
                                {
                                    "url": "https://fhir.siss.regione.lombardia.it/StructureDefinition/ReteLabIdentifierAssignerSiglaNazione",
                                    "valueString": "FR"
                                }
                            ],
                            "identifier": {
                                "value": "COD"
                            },
                            "display": "DESC"
                        }
                    }
                ],
                "name": [
                    {
                        "family": "PRODSISS",
                        "given": [
                            "CENTOOTTANTATRE"
                        ]
                    }
                ],
                "address": [
                    {
                        "text": "V. C/O LOMBARDIA INFORMATICA VIA MINZONI 24",
                        "city": "MILANO",
                        "state": "MI",
                        "postalCode": "20158",
                        "use": "home",
                        "line": [
                            {
                                "extension": [
                                    {
                                        "url": "https://fhir.siss.regione.lombardia.it/StructureDefinition/ReteLabLineVia",
                                        "valueString": "V. C/O LOMBARDIA INFORMATICA VIA MINZONI 24"
                                    }
                                ]
                            }
                        ],
                        "extension": [
                            {
                                "url": "https://fhir.siss.regione.lombardia.it/StructureDefinition/ReteLabAddressCodiceISTAT",
                                "valueString": "015146"
                            }
                        ]
                    },
                    {
                        "text": "V. C/O LOMBARDIA INFORMATICA VIA, MINZONI24",
                        "city": "MILANO",
                        "state": "MI",
                        "postalCode": "20158",
                        "use": "temp",
                        "line": [
                            {
                                "extension": [
                                    {
                                        "url": "https://fhir.siss.regione.lombardia.it/StructureDefinition/ReteLabLineNumeroCivico",
                                        "valueString": "MINZONI24"
                                    },
                                    {
                                        "url": "https://fhir.siss.regione.lombardia.it/StructureDefinition/ReteLabLineVia",
                                        "valueString": "V. C/O LOMBARDIA INFORMATICA VIA"
                                    }
                                ]
                            }
                        ],
                        "extension": [
                            {
                                "url": "https://fhir.siss.regione.lombardia.it/StructureDefinition/ReteLabAddressCodiceISTAT",
                                "valueString": "015146"
                            }
                        ]
                    },
                    {
                        "text": "V. C/O LOMBARDIA INFORMATICA VIA MINZONI 24",
                        "city": "MILANO",
                        "state": "MI",
                        "postalCode": "20158",
                        "use": "home",
                        "line": [
                            {
                                "extension": [
                                    {
                                        "url": "https://fhir.siss.regione.lombardia.it/StructureDefinition/ReteLabLineVia",
                                        "valueString": "V. C/O LOMBARDIA INFORMATICA VIA MINZONI 24"
                                    }
                                ]
                            }
                        ],
                        "extension": [
                            {
                                "url": "https://fhir.siss.regione.lombardia.it/StructureDefinition/ReteLabAddressCodiceISTAT",
                                "valueString": "015146"
                            }
                        ]
                    },
                    {
                        "text": "V. C/O LOMBARDIA INFORMATICA VIA, MINZONI24",
                        "city": "MILANO",
                        "state": "MI",
                        "postalCode": "20158",
                        "use": "home",
                        "line": [
                            {
                                "extension": [
                                    {
                                        "url": "https://fhir.siss.regione.lombardia.it/StructureDefinition/ReteLabLineNumeroCivico",
                                        "valueString": "MINZONI24"
                                    },
                                    {
                                        "url": "https://fhir.siss.regione.lombardia.it/StructureDefinition/ReteLabLineVia",
                                        "valueString": "V. C/O LOMBARDIA INFORMATICA VIA"
                                    }
                                ]
                            }
                        ],
                        "extension": [
                            {
                                "url": "https://fhir.siss.regione.lombardia.it/StructureDefinition/ReteLabAddressCodiceISTAT",
                                "valueString": "015146"
                            }
                        ]
                    }
                ],
                "birthDate": "2000-07-02",
                "gender": "male",
                "link": [
                    {
                        "type": "refer"
                    }
                ]
            }
        }
    ]
}