{
    "resourceType": "Bundle",
    "id": "f0e2d00e-cf47-11ee-80fa-02001700b287",
    "type": "message",
    "timestamp": "2022-11-16T15:00:51+01:00",
    "entry": [
        {
            "fullUrl": "MessageHeader/f0e2d022-cf47-11ee-80fa-02001700b287",
            "resource": {
                "resourceType": "MessageHeader",
                "id": "f0e2d022-cf47-11ee-80fa-02001700b287",
                "meta": {
                    "versionId": "1",
                    "profile": [
                        "https://fhir.siss.regione.lombardia.it/StructureDefinition/ReteLabMessageHeader"
                    ],
                    "lastUpdated": "2022-11-16T15:00:51+01:00"
                },
                "eventCoding": {
                    "system": "https://fhir.siss.regione.lombardia.it/ValueSet/CodiceEventoMessageHeader",
                    "code": "OML^O33",
                    "display": "OML^o33^OML_O33"
                },
                "destination": [
                    {
                        "name": "4",
                        "endpoint": "https://pietrodileo.pythonanywhere.com",
                        "software": "Postman Galaxy Hospital - Nebula Lab"
                    }
                ],
                "source": {
                    "name": "OMR",
                    "endpoint": "localhost:52773/fhir/retilab/Omr",
                    "software": "Order Manager Regionale"
                },
                "focus": [
                    {
                        "reference": "Encounter/dd581794-c054-11ee-9a1b-02001700b287"
                    }
                ]
            }
        },
        {
            "fullUrl": "Patient/dd57f264-c054-11ee-9a1b-02001700b287",
            "resource": {
                "resourceType": "Patient",
                "id": "dd57f264-c054-11ee-9a1b-02001700b287",
                "meta": {
                    "versionId": "1",
                    "profile": [
                        "https://fhir.siss.regione.lombardia.it/StructureDefinition/ReteLabPatientCittadino"
                    ]
                },
                "identifier": [
                    {
                        "value": "12345678987654323456",
                        "system": "https://fhir.siss.regione.lombardia.it/Valueset/TesseraTEAM",
                        "type": {
                            "coding": [
                                {
                                    "display": "Tessera TEAM",
                                    "code": "NPI",
                                    "system": "https://fhir.siss.regione.lombardia.it/Valueset/TipologiaIdentificativoPaziente"
                                }
                            ]
                        },
                        "period": {
                            "end": "2021-05-21T00:00:00+01:00"
                        },
                        "assigner": {
                            "extension": [
                                {
                                    "url": "https://fhir.siss.regione.lombardia.it/StructureDefinition/ReteLabIdentifierAssignerSiglaNazione",
                                    "valueString": "FR"
                                }
                            ],
                            "identifier": {
                                "value": "COD"
                            },
                            "display": "DESC"
                        }
                    }
                ],
                "name": [
                    {
                        "family": "PRODSISS",
                        "given": [
                            "CENTOOTTANTATRE"
                        ]
                    }
                ]
            }
        },
        {
            "fullUrl": "Organization/dd580a6a-c054-11ee-9a1b-02001700b287",
            "resource": {
                "resourceType": "Organization",
                "id": "dd580a6a-c054-11ee-9a1b-02001700b287",
                "meta": {
                    "versionId": "1",
                    "profile": [
                        "https://fhir.siss.regione.lombardia.it/StructureDefinition/ReteLabOrganizationL1"
                    ]
                },
                "identifier": [
                    {
                        "value": "309672",
                        "system": "https://fhir.siss.regione.lombardia.it/sid/codiceIdentificativoEnte"
                    }
                ]
            }
        },
        {
            "fullUrl": "Organization/dd580d4e-c054-11ee-9a1b-02001700b287",
            "resource": {
                "resourceType": "Organization",
                "id": "dd580d4e-c054-11ee-9a1b-02001700b287",
                "meta": {
                    "versionId": "1",
                    "profile": [
                        "https://fhir.siss.regione.lombardia.it/StructureDefinition/ReteLabOrganizationL2"
                    ]
                },
                "identifier": [
                    {
                        "value": "1234",
                        "system": "https://fhir.siss.regione.lombardia.it/sid/codiceMinisterialePresidio"
                    }
                ],
                "partOf": {
                    "reference": "Organization/dd580a6a-c054-11ee-9a1b-02001700b287"
                }
            }
        },
        {
            "fullUrl": "Organization/dd58105a-c054-11ee-9a1b-02001700b287",
            "resource": {
                "resourceType": "Organization",
                "id": "dd58105a-c054-11ee-9a1b-02001700b287",
                "meta": {
                    "versionId": "1",
                    "profile": [
                        "https://fhir.siss.regione.lombardia.it/StructureDefinition/ReteLabOrganizationL3"
                    ]
                },
                "identifier": [
                    {
                        "value": "121314",
                        "system": "https://fhir.siss.regione.lombardia.it/sid/codiceMinisterialeReparto"
                    }
                ],
                "name": "CARDIOLOGIA",
                "partOf": {
                    "reference": "Organization/dd580d4e-c054-11ee-9a1b-02001700b287"
                }
            }
        },
        {
            "fullUrl": "Organization/dd5813ca-c054-11ee-9a1b-02001700b287",
            "resource": {
                "resourceType": "Organization",
                "id": "dd5813ca-c054-11ee-9a1b-02001700b287",
                "meta": {
                    "versionId": "1",
                    "profile": [
                        "https://fhir.siss.regione.lombardia.it/StructureDefinition/ReteLabOrganizationL4"
                    ]
                },
                "identifier": [
                    {
                        "value": "0801",
                        "system": "https://fhir.siss.regione.lombardia.it/sid/codiceMinisterialeAmbulatorio"
                    }
                ],
                "partOf": {
                    "reference": "Organization/dd58105a-c054-11ee-9a1b-02001700b287"
                }
            }
        },
        {
            "fullUrl": "Encounter/dd581794-c054-11ee-9a1b-02001700b287",
            "resource": {
                "resourceType": "Encounter",
                "id": "dd581794-c054-11ee-9a1b-02001700b287",
                "meta": {
                    "versionId": "1",
                    "profile": [
                        "https://fhir.siss.regione.lombardia.it/StructureDefinition/ReteLabEncounterInformazioniRichiestaLab"
                    ]
                },
                "extension": [
                    {
                        "url": "https://fhir.siss.regione.lombardia.it/StructureDefinition/ReteLabEncounterServiceRequester",
                        "valueReference": {
                            "reference": "Organization/dd5813ca-c054-11ee-9a1b-02001700b287"
                        }
                    }
                ],
                "status": "planned",
                "identifier": [
                    {
                        "system": "https://fhir.siss.regione.lombardia.it/Valueset/numeroRicovero",
                        "type": {
                            "coding": [
                                {
                                    "system": "https://fhir.siss.regione.lombardia.it/CodeSystem/TipologiaIdentificativoEncounter",
                                    "code": "NR",
                                    "display": "Numero Ricovero"
                                }
                            ]
                        },
                        "value": "IdentificativoEncounter",
                        "assigner": {
                            "reference": "Organization/dd5813ca-c054-11ee-9a1b-02001700b287",
                            "display": "Laboratorio Richiedente"
                        }
                    }
                ],
                "class": {
                    "code": "IMP",
                    "display": "inpatient encounter",
                    "system": "http://terminology.hl7.org/CodeSystem/v3-ActCode"
                },
                "subject": {
                    "reference": "Patient/dd57f264-c054-11ee-9a1b-02001700b287"
                },
                "basedOn": [
                    {
                        "reference": "ServiceRequest/dd584f8e-c054-11ee-9a1b-02001700b287"
                    }
                ]
            }
        },
        {
            "fullUrl": "Specimen/dd58702c-c054-11ee-9a1b-02001700b287",
            "resource": {
                "resourceType": "Specimen",
                "id": "dd58702c-c054-11ee-9a1b-02001700b287",
                "meta": {
                    "versionId": "1",
                    "profile": [
                        "https://fhir.siss.regione.lombardia.it/StructureDefinition/ReteLabSpecimenCampionePerRichiesta"
                    ]
                },
                "type": {
                    "coding": [
                        {
                            "code": "1212",
                            "display": "Campione di sangue",
                            "system": "system"
                        }
                    ]
                },
                "subject": {
                    "reference": "Patient/dd57f264-c054-11ee-9a1b-02001700b287"
                }
            }
        },
        {
            "fullUrl": "ServiceRequest/dd584f8e-c054-11ee-9a1b-02001700b287",
            "resource": {
                "resourceType": "ServiceRequest",
                "id": "dd584f8e-c054-11ee-9a1b-02001700b287",
                "meta": {
                    "versionId": "1",
                    "profile": [
                        "https://fhir.siss.regione.lombardia.it/StructureDefinition/ReteLabServiceRequestRichiestaEsamiLab"
                    ]
                },
                "identifier": [
                    {
                        "value": "1",
                        "system": "https://fhir.siss.regione.lombardia.it/sid/PlacerOrderNumber"
                    },
                    {
                        "system": "https://fhir.siss.regione.lombardia.it/sid/OMROrderNumber",
                        "value": "f0e12678-cf47-11ee-8743-02001700b287"
                    }
                ],
                "requisition": {
                    "system": "https://fhir.siss.regione.lombardia.it/sid/PlacerRequisitionNumber",
                    "value": "40093-3965-4"
                },
                "status": "active",
                "category": [
                    {
                        "coding": [
                            {
                                "system": "https://fhir.siss.regione.lombardia.it/Valueset/CategoriaOrdine",
                                "code": "1",
                                "display": "Richiesta"
                            }
                        ]
                    }
                ],
                "priority": "urgent",
                "quantityQuantity": {
                    "value": 1
                },
                "intent": "order",
                "authoredOn": "2022-11-16T14:59:37+01:00",
                "code": {
                    "coding": [
                        {
                            "display": "AMILASI",
                            "code": "90271",
                            "system": "https://fhir.siss.regione.lombardia.it/StructureDefinition/Valueset/NuovaCodificaPrestazioniSISS"
                        }
                    ]
                },
                "specimen": [
                    {
                        "reference": "Specimen/dd58702c-c054-11ee-9a1b-02001700b287"
                    }
                ],
                "subject": {
                    "reference": "Patient/dd57f264-c054-11ee-9a1b-02001700b287"
                }
            }
        }
    ],
    "meta": {
        "versionId": "1",
        "profile": [
            "https://fhir.siss.regione.lombardia.it/StructureDefinition/ReteLabBundleNuovaRichiesta"
        ]
    }
}