{
    "resourceType": "Bundle",
    "id": "276fa195-8911-4d66-ae37-bf5eb0a3720b",
    "type": "message",
    "timestamp": "2023-11-10T11:32:11.799Z",
    "entry": [
        {
            "fullUrl": "MessageHeader/f9842358-200d-4b21-85af-b97935d18596",
            "resource": {
                "resourceType": "MessageHeader",
                "id": "f9842358-200d-4b21-85af-b97935d18596",
                "meta": {
                    "profile": [
                        "https://fhir.siss.regione.lombardia.it/StructureDefinition/ReteLabMessageHeader"
                    ],
                    "versionId": "1"
                },
                "eventCoding": {
                    "system": "https://fhir.siss.regione.lombardia.it/ValueSet/CodiceEventoMessageHeader",
                    "code": "ORL_O22",
                    "display": "ORL^O22^ORL_O22"
                },
                "destination": {
                    "name": "OMR",
                    "software": "Reti di laboratori",
                    "endpoint": "localhost:52773/fhir/retilab/Omr"
                },
                "source": {
                    "name": "1",
                    "software": "Postman Space Hospital - Comet Lab",
                    "endpoint": "pietrodileo.pythonanywhere.com"
                },
                "response": {
                    "identifier": "18480fe1453c62c",
                    "code": "ok"
                },
                "focus": [
                    {
                        "reference": "Task/2469edc0-afc4-4b53-965d-3b2cdffa540b"
                    }
                ]
            }
        },
        {
            "fullUrl": "Task/2469edc0-afc4-4b53-965d-3b2cdffa540b",
            "resource": {
                "resourceType": "Task",
                "id": "2469edc0-afc4-4b53-965d-3b2cdffa540b",
                "meta": {
                    "profile": [
                        "https://fhir.siss.regione.lombardia.it/StructureDefinition/ReteLabTaskStatoRichiesta"
                    ],
                    "versionId": "1"
                },
                "focus": {
                    "reference": "ServiceRequest/5421e16a-6421-11ee-9776-02001700b287"
                },
                "status": "accepted",
                "intent": "order"
            }
        },
        {
            "fullUrl": "Encounter/5421db5c-6421-11ee-9776-02001700b287",
            "resource": {
                "resourceType": "Encounter",
                "id": "5421db5c-6421-11ee-9776-02001700b287",
                "meta": {
                    "versionId": "1",
                    "profile": [
                        "https://fhir.siss.regione.lombardia.it/StructureDefinition/ReteLabEncounterInformazioniRichiestaLab"
                    ]
                },
                "status": "planned",
                "identifier": [
                    {
                        "type": {
                            "coding": [
                                {
                                    "code": "VN",
                                    "system": "https://fhir.siss.regione.lombardia.it/CodeSystem/numeroRicovero"
                                }
                            ]
                        },
                        "value": "",
                        "assigner": {
                            "reference": "Organization/5421d42c-6421-11ee-9776-02001700b287",
                            "display": "Laboratorio Richiedente"
                        }
                    }
                ],
                "class": {
                    "code": "IMP",
                    "display": "inpatient encounter",
                    "system": "http://terminology.hl7.org/CodeSystem/v3-ActCode"
                },
                "serviceProvider": {
                    "reference": "Organization/5421d42c-6421-11ee-9776-02001700b287",
                    "display": "Laboratorio richiedente"
                },
                "subject": {
                    "reference": "Patient/54219c46-6421-11ee-9776-02001700b287"
                },
                "basedOn": [
                    {
                        "reference": "ServiceRequest/5421e16a-6421-11ee-9776-02001700b287"
                    }
                ]
            }
        },
        {
            "fullUrl": "Patient/54219c46-6421-11ee-9776-02001700b287",
            "resource": {
                "resourceType": "Patient",
                "id": "54219c46-6421-11ee-9776-02001700b287",
                "meta": {
                    "versionId": "1",
                    "profile": [
                        "https://fhir.siss.regione.lombardia.it/StructureDefinition/ReteLabPatientCittadino"
                    ]
                },
                "extension": [
                    {
                        "url": "http://hl7.org/fhir/StructureDefinition/patient-birthPlace",
                        "valueAddress": {
                            "city": "TORINO",
                            "state": "TO",
                            "extension": [
                                {
                                    "url": "https://fhir.siss.regione.lombardia.it/StructureDefinition/ReteLabAddressCodiceISTAT",
                                    "valueString": "001272"
                                }
                            ]
                        }
                    }
                ],
                "identifier": [
                    {
                        "value": "PRDCTT00L02L219G",
                        "system": "https://fhir.siss.regione.lombardia.it/Valueset/CodiceFiscale",
                        "type": {
                            "coding": [
                                {
                                    "display": "Codice fiscale",
                                    "code": "NN",
                                    "system": "https://fhir.siss.regione.lombardia.it/Valueset/TipologiaIdentificativoPaziente"
                                }
                            ]
                        }
                    },
                    {
                        "value": "999FJ645",
                        "system": "https://fhir.siss.regione.lombardia.it/Valueset/TesseraSanitaria",
                        "type": {
                            "coding": [
                                {
                                    "display": "Tessera sanitaria",
                                    "code": "SS",
                                    "system": "https://fhir.siss.regione.lombardia.it/Valueset/TipologiaIdentificativoPaziente"
                                }
                            ]
                        }
                    }
                ],
                "name": [
                    {
                        "family": "PRODSISS",
                        "given": [
                            "CENTOOTTANTATRE"
                        ]
                    }
                ],
                "address": [
                    {
                        "text": "V. C/O LOMBARDIA INFORMATICA VIA MINZONI 24",
                        "city": "MILANO",
                        "state": "MI",
                        "postalCode": "20158",
                        "use": "home",
                        "line": [
                            {
                                "extension": [
                                    {
                                        "url": "https://fhir.siss.regione.lombardia.it/StructureDefinition/ReteLabLineVia",
                                        "valueString": "V. C/O LOMBARDIA INFORMATICA VIA MINZONI 24"
                                    }
                                ]
                            }
                        ],
                        "extension": [
                            {
                                "url": "https://fhir.siss.regione.lombardia.it/StructureDefinition/ReteLabAddressCodiceISTAT",
                                "valueString": "015146"
                            }
                        ]
                    },
                    {
                        "text": "V. C/O LOMBARDIA INFORMATICA VIA, MINZONI24",
                        "city": "MILANO",
                        "state": "MI",
                        "postalCode": "20158",
                        "use": "temp",
                        "line": [
                            {
                                "extension": [
                                    {
                                        "url": "https://fhir.siss.regione.lombardia.it/StructureDefinition/ReteLabLineNumeroCivico",
                                        "valueString": "MINZONI24"
                                    },
                                    {
                                        "url": "https://fhir.siss.regione.lombardia.it/StructureDefinition/ReteLabLineVia",
                                        "valueString": "V. C/O LOMBARDIA INFORMATICA VIA"
                                    }
                                ]
                            }
                        ],
                        "extension": [
                            {
                                "url": "https://fhir.siss.regione.lombardia.it/StructureDefinition/ReteLabAddressCodiceISTAT",
                                "valueString": "015146"
                            }
                        ]
                    },
                    {
                        "text": "V. C/O LOMBARDIA INFORMATICA VIA MINZONI 24",
                        "city": "MILANO",
                        "state": "MI",
                        "postalCode": "20158",
                        "use": "home",
                        "line": [
                            {
                                "extension": [
                                    {
                                        "url": "https://fhir.siss.regione.lombardia.it/StructureDefinition/ReteLabLineVia",
                                        "valueString": "V. C/O LOMBARDIA INFORMATICA VIA MINZONI 24"
                                    }
                                ]
                            }
                        ],
                        "extension": [
                            {
                                "url": "https://fhir.siss.regione.lombardia.it/StructureDefinition/ReteLabAddressCodiceISTAT",
                                "valueString": "015146"
                            }
                        ]
                    },
                    {
                        "text": "V. C/O LOMBARDIA INFORMATICA VIA, MINZONI24",
                        "city": "MILANO",
                        "state": "MI",
                        "postalCode": "20158",
                        "use": "home",
                        "line": [
                            {
                                "extension": [
                                    {
                                        "url": "https://fhir.siss.regione.lombardia.it/StructureDefinition/ReteLabLineNumeroCivico",
                                        "valueString": "MINZONI24"
                                    },
                                    {
                                        "url": "https://fhir.siss.regione.lombardia.it/StructureDefinition/ReteLabLineVia",
                                        "valueString": "V. C/O LOMBARDIA INFORMATICA VIA"
                                    }
                                ]
                            }
                        ],
                        "extension": [
                            {
                                "url": "https://fhir.siss.regione.lombardia.it/StructureDefinition/ReteLabAddressCodiceISTAT",
                                "valueString": "015146"
                            }
                        ]
                    }
                ],
                "birthDate": "2000-07-02",
                "gender": "male"
            }
        },
        {
            "fullUrl": "Organization/5421cd56-6421-11ee-9776-02001700b287",
            "resource": {
                "resourceType": "Organization",
                "id": "5421cd56-6421-11ee-9776-02001700b287",
                "meta": {
                    "versionId": "1",
                    "profile": [
                        "https://fhir.siss.regione.lombardia.it/StructureDefinition/ReteLabOrganizationL1"
                    ]
                },
                "identifier": [
                    {
                        "value": "309672",
                        "system": "https://fhir.siss.regione.lombardia.it/sid/codiceIdentificativoEnte"
                    }
                ]
            }
        },
        {
            "fullUrl": "Organization/5421d0d0-6421-11ee-9776-02001700b287",
            "resource": {
                "resourceType": "Organization",
                "id": "5421d0d0-6421-11ee-9776-02001700b287",
                "meta": {
                    "versionId": "1",
                    "profile": [
                        "https://fhir.siss.regione.lombardia.it/StructureDefinition/ReteLabOrganizationL2"
                    ]
                },
                "identifier": [
                    {
                        "value": "1234",
                        "system": "https://fhir.siss.regione.lombardia.it/sid/codiceMinisterialePresidio"
                    }
                ],
                "partOf": {
                    "reference": "Organization/5421cd56-6421-11ee-9776-02001700b287"
                }
            }
        },
        {
            "fullUrl": "Organization/5421d42c-6421-11ee-9776-02001700b287",
            "resource": {
                "resourceType": "Organization",
                "id": "5421d42c-6421-11ee-9776-02001700b287",
                "meta": {
                    "versionId": "1",
                    "profile": [
                        "https://fhir.siss.regione.lombardia.it/StructureDefinition/ReteLabOrganizationL3"
                    ]
                },
                "identifier": [
                    {
                        "value": "0801",
                        "system": "https://fhir.siss.regione.lombardia.it/sid/codiceMinisterialeReparto"
                    }
                ],
                "name": "CARDIOLOGIA",
                "partOf": {
                    "reference": "Organization/5421d0d0-6421-11ee-9776-02001700b287"
                }
            }
        },
        {
            "fullUrl": "PractitionerRole/5421effc-6421-11ee-9776-02001700b287",
            "resource": {
                "resourceType": "PractitionerRole",
                "id": "5421effc-6421-11ee-9776-02001700b287",
                "meta": {
                    "versionId": "1",
                    "profile": [
                        "https://fhir.siss.regione.lombardia.it/StructureDefinition/ReteLabPractitionerRoleMedico"
                    ]
                },
                "code": [
                    {
                        "coding": [
                            {
                                "system": "https://fhir.siss.regione.lombardia.it/ValueSet/QualificaMedico",
                                "code": "2",
                                "display": "Specialista"
                            }
                        ]
                    }
                ],
                "practitioner": {
                    "reference": "Practitioner/5421f1a0-6421-11ee-9776-02001700b287"
                }
            }
        },
        {
            "fullUrl": "Practitioner/5421f1a0-6421-11ee-9776-02001700b287",
            "resource": {
                "resourceType": "Practitioner",
                "id": "5421f1a0-6421-11ee-9776-02001700b287",
                "meta": {
                    "versionId": "1",
                    "profile": [
                        "https://fhir.siss.regione.lombardia.it/StructureDefinition/ReteLabPractitionerMedico"
                    ]
                },
                "identifier": [
                    {
                        "value": "NVESFN77E09H264L"
                    }
                ],
                "name": [
                    {
                        "family": "NEVA",
                        "given": [
                            "STEFANO"
                        ]
                    }
                ]
            }
        },
        {
            "fullUrl": "ServiceRequest/5421e16a-6421-11ee-9776-02001700b287",
            "resource": {
                "resourceType": "ServiceRequest",
                "id": "5421e16a-6421-11ee-9776-02001700b287",
                "meta": {
                    "versionId": "1",
                    "profile": [
                        "https://fhir.siss.regione.lombardia.it/StructureDefinition/ReteLabServiceRequestRichiestaEsamiLab"
                    ]
                },
                "specimen": [
                    {
                        "reference": "Specimen/5421e232-6421-11ee-9776-02001700b287"
                    },
                    {
                        "reference": "Specimen/5421e4ee-6421-11ee-9776-02001700b287"
                    },
                    {
                        "reference": "Specimen/5421e70a-6421-11ee-9776-02001700b287"
                    }
                ],
                "identifier": [
                    {
                        "system": "https://fhir.siss.regione.lombardia.it/sid/PlacerOrderNumber",
                        "value": "12345"
                    },
                    {
                        "system": "https://fhir.siss.regione.lombardia.it/sid/FillerOrderNumber",
                        "value": "ea513413-cdc4-43eb-8a5e-2d75985a8aa7"
                    }
                ],
                "requisition": {
                    "system": "https://fhir.siss.regione.lombardia.it/sid/PlacerRequisitionNumber",
                    "value": "123456"
                },
                "status": "active",
                "category": [
                    {
                        "coding": [
                            {
                                "system": "https://fhir.siss.regione.lombardia.it/Valueset/CategoriaOrdine",
                                "code": "1",
                                "display": "Richiesta"
                            }
                        ]
                    }
                ],
                "priority": "urgent",
                "quantityQuantity": {
                    "value": 1
                },
                "intent": "order",
                "authoredOn": "2022-11-16T14:59:37+01:00",
                "code": {
                    "coding": [
                        {
                            "display": "Emocromo completo",
                            "code": "90622"
                        }
                    ]
                },
                "orderDetail": [
                    {
                        "coding": [
                            {
                                "code": "0002",
                                "system": "https://fhir.siss.regione.lombardia.it/sid/identificativoInternoUnitaErogante"
                            }
                        ]
                    },
                    {
                        "coding": [
                            {
                                "code": "0801",
                                "system": "https://fhir.siss.regione.lombardia.it/sid/codiceMinisterialeReparto"
                            }
                        ]
                    },
                    {
                        "coding": [
                            {
                                "code": "03091300",
                                "system": "https://fhir.siss.regione.lombardia.it/sid/codiceMinisterialePresidio"
                            }
                        ]
                    },
                    {
                        "coding": [
                            {
                                "code": "LAB",
                                "system": "https://fhir.siss.regione.lombardia.it/sid/identificativoInternoSalaErogatrice"
                            }
                        ]
                    }
                ],
                "subject": {
                    "reference": "Patient/54219c46-6421-11ee-9776-02001700b287"
                },
                "requester": {
                    "reference": "PractitionerRole/5421effc-6421-11ee-9776-02001700b287"
                },
                "performer": [
                    {
                        "reference": "Organization/1c7034f9-03ae-4770-b47e-f83c37b2be76"
                    }
                ]
            }
        },
        {
            "fullUrl": "Organization/fa176bd4-be8a-4fdc-bca4-b9571b7a29d5",
            "resource": {
                "resourceType": "Organization",
                "id": "fa176bd4-be8a-4fdc-bca4-b9571b7a29d5",
                "meta": {
                    "profile": [
                        "https://fhir.siss.regione.lombardia.it/StructureDefinition/ReteLabOrganizationL1"
                    ]
                },
                "identifier": [
                    {
                        "system": "https://fhir.siss.regione.lombardia.it/sid/codiceIdentificativoEnte",
                        "value": "309672"
                    }
                ],
                "name": "Denominazione dell'ente L1"
            }
        },
        {
            "fullUrl": "Organization/1c7034f9-03ae-4770-b47e-f83c37b2be76",
            "resource": {
                "resourceType": "Organization",
                "id": "1c7034f9-03ae-4770-b47e-f83c37b2be76",
                "meta": {
                    "profile": [
                        "https://fhir.siss.regione.lombardia.it/StructureDefinition/ReteLabOrganizationL2"
                    ]
                },
                "identifier": [
                    {
                        "system": "https://fhir.siss.regione.lombardia.it/sid/codiceMinisterialePresidio",
                        "value": "1234"
                    }
                ],
                "partOf": {
                    "reference": "Organization/fa176bd4-be8a-4fdc-bca4-b9571b7a29d5"
                },
                "name": "Denominazione dell'ente L2"
            }
        }
    ]
}